submission_id,RT,age,comments,correctness,education,endTime,expected,experiment_id,gender,key_pressed,languages,picture,startDate,startTime,timeSpent,trial_block,trial_number,trial_type
1699,178,21,,correct,Graduated High School,1595611655941,small,157,female,q,German,images/square_2x2.jpg,Fri Jul 24 2020 19:17:36 GMT+0200 (Mitteleuropäische Sommerzeit),1595611056328,9.99355,practice,1,compatible
1699,2165,21,,timeout,Graduated High School,1595611655941,small,157,female,p,German,images/square_2x2.jpg,Fri Jul 24 2020 19:17:36 GMT+0200 (Mitteleuropäische Sommerzeit),1595611056328,9.99355,practice,2,compatible
1699,644,21,,incorrect,Graduated High School,1595611655941,small,157,female,p,German,images/square_2x2.jpg,Fri Jul 24 2020 19:17:36 GMT+0200 (Mitteleuropäische Sommerzeit),1595611056328,9.99355,practice,3,compatible
1699,11,21,,correct,Graduated High School,1595611655941,small,157,female,q,German,images/square_2x2.jpg,Fri Jul 24 2020 19:17:36 GMT+0200 (Mitteleuropäische Sommerzeit),1595611056328,9.99355,practice,4,compatible
1699,1063,21,,correct,Graduated High School,1595611655941,large,157,female,p,German,images/square_4x4.jpg,Fri Jul 24 2020 19:17:36 GMT+0200 (Mitteleuropäische Sommerzeit),1595611056328,9.99355,practice,5,compatible
1699,392,21,,correct,Graduated High School,1595611655941,small,157,female,q,German,images/square_2x2.jpg,Fri Jul 24 2020 19:17:36 GMT+0200 (Mitteleuropäische Sommerzeit),1595611056328,9.99355,practice,6,compatible
1699,420,21,,correct,Graduated High School,1595611655941,large,157,female,p,German,images/square_4x4.jpg,Fri Jul 24 2020 19:17:36 GMT+0200 (Mitteleuropäische Sommerzeit),1595611056328,9.99355,practice,7,compatible
1699,366,21,,correct,Graduated High School,1595611655941,small,157,female,q,German,images/square_2x2.jpg,Fri Jul 24 2020 19:17:36 GMT+0200 (Mitteleuropäische Sommerzeit),1595611056328,9.99355,practice,8,compatible
1699,376,21,,correct,Graduated High School,1595611655941,large,157,female,p,German,images/square_4x4.jpg,Fri Jul 24 2020 19:17:36 GMT+0200 (Mitteleuropäische Sommerzeit),1595611056328,9.99355,practice,9,compatible
1699,371,21,,correct,Graduated High School,1595611655941,small,157,female,q,German,images/square_2x2.jpg,Fri Jul 24 2020 19:17:36 GMT+0200 (Mitteleuropäische Sommerzeit),1595611056328,9.99355,practice,10,compatible
1699,403,21,,correct,Graduated High School,1595611655941,large,157,female,p,German,images/square_4x4.jpg,Fri Jul 24 2020 19:17:36 GMT+0200 (Mitteleuropäische Sommerzeit),1595611056328,9.99355,main,1,compatible
1699,464,21,,correct,Graduated High School,1595611655941,small,157,female,q,German,images/square_2x2.jpg,Fri Jul 24 2020 19:17:36 GMT+0200 (Mitteleuropäische Sommerzeit),1595611056328,9.99355,main,2,compatible
1699,476,21,,correct,Graduated High School,1595611655941,small,157,female,q,German,images/square_2x2.jpg,Fri Jul 24 2020 19:17:36 GMT+0200 (Mitteleuropäische Sommerzeit),1595611056328,9.99355,main,3,compatible
1699,454,21,,correct,Graduated High School,1595611655941,small,157,female,q,German,images/square_2x2.jpg,Fri Jul 24 2020 19:17:36 GMT+0200 (Mitteleuropäische Sommerzeit),1595611056328,9.99355,main,4,compatible
1699,461,21,,correct,Graduated High School,1595611655941,small,157,female,q,German,images/square_2x2.jpg,Fri Jul 24 2020 19:17:36 GMT+0200 (Mitteleuropäische Sommerzeit),1595611056328,9.99355,main,5,compatible
1699,416,21,,correct,Graduated High School,1595611655941,large,157,female,p,German,images/square_4x4.jpg,Fri Jul 24 2020 19:17:36 GMT+0200 (Mitteleuropäische Sommerzeit),1595611056328,9.99355,main,6,compatible
1699,421,21,,correct,Graduated High School,1595611655941,large,157,female,p,German,images/square_4x4.jpg,Fri Jul 24 2020 19:17:36 GMT+0200 (Mitteleuropäische Sommerzeit),1595611056328,9.99355,main,7,compatible
1699,401,21,,correct,Graduated High School,1595611655941,small,157,female,q,German,images/square_2x2.jpg,Fri Jul 24 2020 19:17:36 GMT+0200 (Mitteleuropäische Sommerzeit),1595611056328,9.99355,main,8,compatible
1699,388,21,,correct,Graduated High School,1595611655941,small,157,female,q,German,images/square_2x2.jpg,Fri Jul 24 2020 19:17:36 GMT+0200 (Mitteleuropäische Sommerzeit),1595611056328,9.99355,main,9,compatible
1699,432,21,,correct,Graduated High School,1595611655941,small,157,female,q,German,images/square_2x2.jpg,Fri Jul 24 2020 19:17:36 GMT+0200 (Mitteleuropäische Sommerzeit),1595611056328,9.99355,main,10,compatible
1699,370,21,,correct,Graduated High School,1595611655941,small,157,female,q,German,images/square_2x2.jpg,Fri Jul 24 2020 19:17:36 GMT+0200 (Mitteleuropäische Sommerzeit),1595611056328,9.99355,main,11,compatible
1699,336,21,,correct,Graduated High School,1595611655941,large,157,female,p,German,images/square_4x4.jpg,Fri Jul 24 2020 19:17:36 GMT+0200 (Mitteleuropäische Sommerzeit),1595611056328,9.99355,main,12,compatible
1699,368,21,,correct,Graduated High School,1595611655941,large,157,female,p,German,images/square_4x4.jpg,Fri Jul 24 2020 19:17:36 GMT+0200 (Mitteleuropäische Sommerzeit),1595611056328,9.99355,main,13,compatible
1699,320,21,,correct,Graduated High School,1595611655941,large,157,female,p,German,images/square_4x4.jpg,Fri Jul 24 2020 19:17:36 GMT+0200 (Mitteleuropäische Sommerzeit),1595611056328,9.99355,main,14,compatible
1699,354,21,,correct,Graduated High School,1595611655941,large,157,female,p,German,images/square_4x4.jpg,Fri Jul 24 2020 19:17:36 GMT+0200 (Mitteleuropäische Sommerzeit),1595611056328,9.99355,main,15,compatible
1699,419,21,,correct,Graduated High School,1595611655941,small,157,female,q,German,images/square_2x2.jpg,Fri Jul 24 2020 19:17:36 GMT+0200 (Mitteleuropäische Sommerzeit),1595611056328,9.99355,main,16,compatible
1699,318,21,,correct,Graduated High School,1595611655941,large,157,female,p,German,images/square_4x4.jpg,Fri Jul 24 2020 19:17:36 GMT+0200 (Mitteleuropäische Sommerzeit),1595611056328,9.99355,main,17,compatible
1699,380,21,,correct,Graduated High School,1595611655941,large,157,female,p,German,images/square_4x4.jpg,Fri Jul 24 2020 19:17:36 GMT+0200 (Mitteleuropäische Sommerzeit),1595611056328,9.99355,main,18,compatible
1699,560,21,,correct,Graduated High School,1595611655941,small,157,female,q,German,images/square_2x2.jpg,Fri Jul 24 2020 19:17:36 GMT+0200 (Mitteleuropäische Sommerzeit),1595611056328,9.99355,main,19,compatible
1699,389,21,,correct,Graduated High School,1595611655941,small,157,female,q,German,images/square_2x2.jpg,Fri Jul 24 2020 19:17:36 GMT+0200 (Mitteleuropäische Sommerzeit),1595611056328,9.99355,main,20,compatible
1699,379,21,,correct,Graduated High School,1595611655941,small,157,female,q,German,images/square_2x2.jpg,Fri Jul 24 2020 19:17:36 GMT+0200 (Mitteleuropäische Sommerzeit),1595611056328,9.99355,main,21,compatible
1699,370,21,,correct,Graduated High School,1595611655941,large,157,female,p,German,images/square_4x4.jpg,Fri Jul 24 2020 19:17:36 GMT+0200 (Mitteleuropäische Sommerzeit),1595611056328,9.99355,main,22,compatible
1699,436,21,,correct,Graduated High School,1595611655941,small,157,female,q,German,images/square_2x2.jpg,Fri Jul 24 2020 19:17:36 GMT+0200 (Mitteleuropäische Sommerzeit),1595611056328,9.99355,main,23,compatible
1699,378,21,,correct,Graduated High School,1595611655941,large,157,female,p,German,images/square_4x4.jpg,Fri Jul 24 2020 19:17:36 GMT+0200 (Mitteleuropäische Sommerzeit),1595611056328,9.99355,main,24,compatible
1699,371,21,,correct,Graduated High School,1595611655941,large,157,female,p,German,images/square_4x4.jpg,Fri Jul 24 2020 19:17:36 GMT+0200 (Mitteleuropäische Sommerzeit),1595611056328,9.99355,main,25,compatible
1699,396,21,,correct,Graduated High School,1595611655941,large,157,female,p,German,images/square_4x4.jpg,Fri Jul 24 2020 19:17:36 GMT+0200 (Mitteleuropäische Sommerzeit),1595611056328,9.99355,main,26,compatible
1699,348,21,,correct,Graduated High School,1595611655941,small,157,female,q,German,images/square_2x2.jpg,Fri Jul 24 2020 19:17:36 GMT+0200 (Mitteleuropäische Sommerzeit),1595611056328,9.99355,main,27,compatible
1699,366,21,,correct,Graduated High School,1595611655941,small,157,female,q,German,images/square_2x2.jpg,Fri Jul 24 2020 19:17:36 GMT+0200 (Mitteleuropäische Sommerzeit),1595611056328,9.99355,main,28,compatible
1699,385,21,,correct,Graduated High School,1595611655941,large,157,female,p,German,images/square_4x4.jpg,Fri Jul 24 2020 19:17:36 GMT+0200 (Mitteleuropäische Sommerzeit),1595611056328,9.99355,main,29,compatible
1699,351,21,,correct,Graduated High School,1595611655941,small,157,female,q,German,images/square_2x2.jpg,Fri Jul 24 2020 19:17:36 GMT+0200 (Mitteleuropäische Sommerzeit),1595611056328,9.99355,main,30,compatible
1699,368,21,,correct,Graduated High School,1595611655941,large,157,female,p,German,images/square_4x4.jpg,Fri Jul 24 2020 19:17:36 GMT+0200 (Mitteleuropäische Sommerzeit),1595611056328,9.99355,main,31,compatible
1699,395,21,,correct,Graduated High School,1595611655941,large,157,female,p,German,images/square_4x4.jpg,Fri Jul 24 2020 19:17:36 GMT+0200 (Mitteleuropäische Sommerzeit),1595611056328,9.99355,main,32,compatible
1699,413,21,,correct,Graduated High School,1595611655941,small,157,female,q,German,images/square_2x2.jpg,Fri Jul 24 2020 19:17:36 GMT+0200 (Mitteleuropäische Sommerzeit),1595611056328,9.99355,main,33,compatible
1699,436,21,,correct,Graduated High School,1595611655941,small,157,female,q,German,images/square_2x2.jpg,Fri Jul 24 2020 19:17:36 GMT+0200 (Mitteleuropäische Sommerzeit),1595611056328,9.99355,main,34,compatible
1699,411,21,,correct,Graduated High School,1595611655941,large,157,female,p,German,images/square_4x4.jpg,Fri Jul 24 2020 19:17:36 GMT+0200 (Mitteleuropäische Sommerzeit),1595611056328,9.99355,main,35,compatible
1699,413,21,,correct,Graduated High School,1595611655941,large,157,female,p,German,images/square_4x4.jpg,Fri Jul 24 2020 19:17:36 GMT+0200 (Mitteleuropäische Sommerzeit),1595611056328,9.99355,main,36,compatible
1699,369,21,,correct,Graduated High School,1595611655941,large,157,female,p,German,images/square_4x4.jpg,Fri Jul 24 2020 19:17:36 GMT+0200 (Mitteleuropäische Sommerzeit),1595611056328,9.99355,main,37,compatible
1699,421,21,,correct,Graduated High School,1595611655941,large,157,female,p,German,images/square_4x4.jpg,Fri Jul 24 2020 19:17:36 GMT+0200 (Mitteleuropäische Sommerzeit),1595611056328,9.99355,main,38,compatible
1699,429,21,,correct,Graduated High School,1595611655941,small,157,female,q,German,images/square_2x2.jpg,Fri Jul 24 2020 19:17:36 GMT+0200 (Mitteleuropäische Sommerzeit),1595611056328,9.99355,main,39,compatible
1699,394,21,,correct,Graduated High School,1595611655941,large,157,female,p,German,images/square_4x4.jpg,Fri Jul 24 2020 19:17:36 GMT+0200 (Mitteleuropäische Sommerzeit),1595611056328,9.99355,main,40,compatible
1699,424,21,,correct,Graduated High School,1595611655941,large,157,female,p,German,images/square_4x4.jpg,Fri Jul 24 2020 19:17:36 GMT+0200 (Mitteleuropäische Sommerzeit),1595611056328,9.99355,main,41,compatible
1699,407,21,,correct,Graduated High School,1595611655941,small,157,female,q,German,images/square_2x2.jpg,Fri Jul 24 2020 19:17:36 GMT+0200 (Mitteleuropäische Sommerzeit),1595611056328,9.99355,main,42,compatible
1699,375,21,,correct,Graduated High School,1595611655941,large,157,female,p,German,images/square_4x4.jpg,Fri Jul 24 2020 19:17:36 GMT+0200 (Mitteleuropäische Sommerzeit),1595611056328,9.99355,main,43,compatible
1699,392,21,,correct,Graduated High School,1595611655941,large,157,female,p,German,images/square_4x4.jpg,Fri Jul 24 2020 19:17:36 GMT+0200 (Mitteleuropäische Sommerzeit),1595611056328,9.99355,main,44,compatible
1699,360,21,,correct,Graduated High School,1595611655941,small,157,female,q,German,images/square_2x2.jpg,Fri Jul 24 2020 19:17:36 GMT+0200 (Mitteleuropäische Sommerzeit),1595611056328,9.99355,main,45,compatible
1699,395,21,,correct,Graduated High School,1595611655941,large,157,female,p,German,images/square_4x4.jpg,Fri Jul 24 2020 19:17:36 GMT+0200 (Mitteleuropäische Sommerzeit),1595611056328,9.99355,main,46,compatible
1699,334,21,,correct,Graduated High School,1595611655941,large,157,female,p,German,images/square_4x4.jpg,Fri Jul 24 2020 19:17:36 GMT+0200 (Mitteleuropäische Sommerzeit),1595611056328,9.99355,main,47,compatible
1699,358,21,,correct,Graduated High School,1595611655941,large,157,female,p,German,images/square_4x4.jpg,Fri Jul 24 2020 19:17:36 GMT+0200 (Mitteleuropäische Sommerzeit),1595611056328,9.99355,main,48,compatible
1699,334,21,,correct,Graduated High School,1595611655941,large,157,female,p,German,images/square_4x4.jpg,Fri Jul 24 2020 19:17:36 GMT+0200 (Mitteleuropäische Sommerzeit),1595611056328,9.99355,main,49,compatible
1699,402,21,,correct,Graduated High School,1595611655941,large,157,female,p,German,images/square_4x4.jpg,Fri Jul 24 2020 19:17:36 GMT+0200 (Mitteleuropäische Sommerzeit),1595611056328,9.99355,main,50,compatible
1699,437,21,,correct,Graduated High School,1595611655941,small,157,female,q,German,images/square_2x2.jpg,Fri Jul 24 2020 19:17:36 GMT+0200 (Mitteleuropäische Sommerzeit),1595611056328,9.99355,main,51,compatible
1699,388,21,,correct,Graduated High School,1595611655941,small,157,female,q,German,images/square_2x2.jpg,Fri Jul 24 2020 19:17:36 GMT+0200 (Mitteleuropäische Sommerzeit),1595611056328,9.99355,main,52,compatible
1699,417,21,,correct,Graduated High School,1595611655941,small,157,female,q,German,images/square_2x2.jpg,Fri Jul 24 2020 19:17:36 GMT+0200 (Mitteleuropäische Sommerzeit),1595611056328,9.99355,main,53,compatible
1699,375,21,,correct,Graduated High School,1595611655941,small,157,female,q,German,images/square_2x2.jpg,Fri Jul 24 2020 19:17:36 GMT+0200 (Mitteleuropäische Sommerzeit),1595611056328,9.99355,main,54,compatible
1699,346,21,,correct,Graduated High School,1595611655941,small,157,female,q,German,images/square_2x2.jpg,Fri Jul 24 2020 19:17:36 GMT+0200 (Mitteleuropäische Sommerzeit),1595611056328,9.99355,main,55,compatible
1699,415,21,,correct,Graduated High School,1595611655941,small,157,female,q,German,images/square_2x2.jpg,Fri Jul 24 2020 19:17:36 GMT+0200 (Mitteleuropäische Sommerzeit),1595611056328,9.99355,main,56,compatible
1699,387,21,,correct,Graduated High School,1595611655941,large,157,female,p,German,images/square_4x4.jpg,Fri Jul 24 2020 19:17:36 GMT+0200 (Mitteleuropäische Sommerzeit),1595611056328,9.99355,main,57,compatible
1699,355,21,,correct,Graduated High School,1595611655941,small,157,female,q,German,images/square_2x2.jpg,Fri Jul 24 2020 19:17:36 GMT+0200 (Mitteleuropäische Sommerzeit),1595611056328,9.99355,main,58,compatible
1699,364,21,,correct,Graduated High School,1595611655941,small,157,female,q,German,images/square_2x2.jpg,Fri Jul 24 2020 19:17:36 GMT+0200 (Mitteleuropäische Sommerzeit),1595611056328,9.99355,main,59,compatible
1699,354,21,,correct,Graduated High School,1595611655941,small,157,female,q,German,images/square_2x2.jpg,Fri Jul 24 2020 19:17:36 GMT+0200 (Mitteleuropäische Sommerzeit),1595611056328,9.99355,main,60,compatible
1699,462,21,,correct,Graduated High School,1595611655941,large,157,female,q,German,images/square_4x4.jpg,Fri Jul 24 2020 19:17:36 GMT+0200 (Mitteleuropäische Sommerzeit),1595611056328,9.99355,practice,1,incompatible
1699,407,21,,correct,Graduated High School,1595611655941,large,157,female,q,German,images/square_4x4.jpg,Fri Jul 24 2020 19:17:36 GMT+0200 (Mitteleuropäische Sommerzeit),1595611056328,9.99355,practice,2,incompatible
1699,423,21,,correct,Graduated High School,1595611655941,small,157,female,p,German,images/square_2x2.jpg,Fri Jul 24 2020 19:17:36 GMT+0200 (Mitteleuropäische Sommerzeit),1595611056328,9.99355,practice,3,incompatible
1699,418,21,,correct,Graduated High School,1595611655941,small,157,female,p,German,images/square_2x2.jpg,Fri Jul 24 2020 19:17:36 GMT+0200 (Mitteleuropäische Sommerzeit),1595611056328,9.99355,practice,4,incompatible
1699,327,21,,correct,Graduated High School,1595611655941,large,157,female,q,German,images/square_4x4.jpg,Fri Jul 24 2020 19:17:36 GMT+0200 (Mitteleuropäische Sommerzeit),1595611056328,9.99355,practice,5,incompatible
1699,401,21,,correct,Graduated High School,1595611655941,large,157,female,q,German,images/square_4x4.jpg,Fri Jul 24 2020 19:17:36 GMT+0200 (Mitteleuropäische Sommerzeit),1595611056328,9.99355,practice,6,incompatible
1699,384,21,,correct,Graduated High School,1595611655941,small,157,female,p,German,images/square_2x2.jpg,Fri Jul 24 2020 19:17:36 GMT+0200 (Mitteleuropäische Sommerzeit),1595611056328,9.99355,practice,7,incompatible
1699,351,21,,correct,Graduated High School,1595611655941,large,157,female,q,German,images/square_4x4.jpg,Fri Jul 24 2020 19:17:36 GMT+0200 (Mitteleuropäische Sommerzeit),1595611056328,9.99355,practice,8,incompatible
1699,351,21,,correct,Graduated High School,1595611655941,large,157,female,q,German,images/square_4x4.jpg,Fri Jul 24 2020 19:17:36 GMT+0200 (Mitteleuropäische Sommerzeit),1595611056328,9.99355,practice,9,incompatible
1699,403,21,,correct,Graduated High School,1595611655941,small,157,female,p,German,images/square_2x2.jpg,Fri Jul 24 2020 19:17:36 GMT+0200 (Mitteleuropäische Sommerzeit),1595611056328,9.99355,practice,10,incompatible
1699,435,21,,correct,Graduated High School,1595611655941,large,157,female,q,German,images/square_4x4.jpg,Fri Jul 24 2020 19:17:36 GMT+0200 (Mitteleuropäische Sommerzeit),1595611056328,9.99355,practice,11,incompatible
1699,407,21,,correct,Graduated High School,1595611655941,small,157,female,p,German,images/square_2x2.jpg,Fri Jul 24 2020 19:17:36 GMT+0200 (Mitteleuropäische Sommerzeit),1595611056328,9.99355,practice,12,incompatible
1699,411,21,,correct,Graduated High School,1595611655941,large,157,female,q,German,images/square_4x4.jpg,Fri Jul 24 2020 19:17:36 GMT+0200 (Mitteleuropäische Sommerzeit),1595611056328,9.99355,practice,13,incompatible
1699,449,21,,correct,Graduated High School,1595611655941,large,157,female,q,German,images/square_4x4.jpg,Fri Jul 24 2020 19:17:36 GMT+0200 (Mitteleuropäische Sommerzeit),1595611056328,9.99355,practice,14,incompatible
1699,390,21,,correct,Graduated High School,1595611655941,large,157,female,q,German,images/square_4x4.jpg,Fri Jul 24 2020 19:17:36 GMT+0200 (Mitteleuropäische Sommerzeit),1595611056328,9.99355,practice,15,incompatible
1699,392,21,,correct,Graduated High School,1595611655941,small,157,female,p,German,images/square_2x2.jpg,Fri Jul 24 2020 19:17:36 GMT+0200 (Mitteleuropäische Sommerzeit),1595611056328,9.99355,practice,16,incompatible
1699,443,21,,correct,Graduated High School,1595611655941,small,157,female,p,German,images/square_2x2.jpg,Fri Jul 24 2020 19:17:36 GMT+0200 (Mitteleuropäische Sommerzeit),1595611056328,9.99355,practice,17,incompatible
1699,387,21,,correct,Graduated High School,1595611655941,small,157,female,p,German,images/square_2x2.jpg,Fri Jul 24 2020 19:17:36 GMT+0200 (Mitteleuropäische Sommerzeit),1595611056328,9.99355,practice,18,incompatible
1699,496,21,,correct,Graduated High School,1595611655941,small,157,female,p,German,images/square_2x2.jpg,Fri Jul 24 2020 19:17:36 GMT+0200 (Mitteleuropäische Sommerzeit),1595611056328,9.99355,practice,19,incompatible
1699,496,21,,correct,Graduated High School,1595611655941,small,157,female,p,German,images/square_2x2.jpg,Fri Jul 24 2020 19:17:36 GMT+0200 (Mitteleuropäische Sommerzeit),1595611056328,9.99355,practice,20,incompatible
1699,834,21,,correct,Graduated High School,1595611655941,small,157,female,p,German,images/square_2x2.jpg,Fri Jul 24 2020 19:17:36 GMT+0200 (Mitteleuropäische Sommerzeit),1595611056328,9.99355,main,1,incompatible
1699,393,21,,correct,Graduated High School,1595611655941,large,157,female,q,German,images/square_4x4.jpg,Fri Jul 24 2020 19:17:36 GMT+0200 (Mitteleuropäische Sommerzeit),1595611056328,9.99355,main,2,incompatible
1699,483,21,,correct,Graduated High School,1595611655941,large,157,female,q,German,images/square_4x4.jpg,Fri Jul 24 2020 19:17:36 GMT+0200 (Mitteleuropäische Sommerzeit),1595611056328,9.99355,main,3,incompatible
1699,426,21,,correct,Graduated High School,1595611655941,small,157,female,p,German,images/square_2x2.jpg,Fri Jul 24 2020 19:17:36 GMT+0200 (Mitteleuropäische Sommerzeit),1595611056328,9.99355,main,4,incompatible
1699,481,21,,correct,Graduated High School,1595611655941,small,157,female,p,German,images/square_2x2.jpg,Fri Jul 24 2020 19:17:36 GMT+0200 (Mitteleuropäische Sommerzeit),1595611056328,9.99355,main,5,incompatible
1699,389,21,,correct,Graduated High School,1595611655941,large,157,female,q,German,images/square_4x4.jpg,Fri Jul 24 2020 19:17:36 GMT+0200 (Mitteleuropäische Sommerzeit),1595611056328,9.99355,main,6,incompatible
1699,410,21,,correct,Graduated High School,1595611655941,large,157,female,q,German,images/square_4x4.jpg,Fri Jul 24 2020 19:17:36 GMT+0200 (Mitteleuropäische Sommerzeit),1595611056328,9.99355,main,7,incompatible
1699,363,21,,correct,Graduated High School,1595611655941,large,157,female,q,German,images/square_4x4.jpg,Fri Jul 24 2020 19:17:36 GMT+0200 (Mitteleuropäische Sommerzeit),1595611056328,9.99355,main,8,incompatible
1699,399,21,,correct,Graduated High School,1595611655941,large,157,female,q,German,images/square_4x4.jpg,Fri Jul 24 2020 19:17:36 GMT+0200 (Mitteleuropäische Sommerzeit),1595611056328,9.99355,main,9,incompatible
1699,425,21,,correct,Graduated High School,1595611655941,small,157,female,p,German,images/square_2x2.jpg,Fri Jul 24 2020 19:17:36 GMT+0200 (Mitteleuropäische Sommerzeit),1595611056328,9.99355,main,10,incompatible
1699,363,21,,correct,Graduated High School,1595611655941,large,157,female,q,German,images/square_4x4.jpg,Fri Jul 24 2020 19:17:36 GMT+0200 (Mitteleuropäische Sommerzeit),1595611056328,9.99355,main,11,incompatible
1699,407,21,,correct,Graduated High School,1595611655941,small,157,female,p,German,images/square_2x2.jpg,Fri Jul 24 2020 19:17:36 GMT+0200 (Mitteleuropäische Sommerzeit),1595611056328,9.99355,main,12,incompatible
1699,423,21,,correct,Graduated High School,1595611655941,large,157,female,q,German,images/square_4x4.jpg,Fri Jul 24 2020 19:17:36 GMT+0200 (Mitteleuropäische Sommerzeit),1595611056328,9.99355,main,13,incompatible
1699,432,21,,correct,Graduated High School,1595611655941,small,157,female,p,German,images/square_2x2.jpg,Fri Jul 24 2020 19:17:36 GMT+0200 (Mitteleuropäische Sommerzeit),1595611056328,9.99355,main,14,incompatible
1699,378,21,,correct,Graduated High School,1595611655941,small,157,female,p,German,images/square_2x2.jpg,Fri Jul 24 2020 19:17:36 GMT+0200 (Mitteleuropäische Sommerzeit),1595611056328,9.99355,main,15,incompatible
1699,339,21,,correct,Graduated High School,1595611655941,large,157,female,q,German,images/square_4x4.jpg,Fri Jul 24 2020 19:17:36 GMT+0200 (Mitteleuropäische Sommerzeit),1595611056328,9.99355,main,16,incompatible
1699,412,21,,correct,Graduated High School,1595611655941,large,157,female,q,German,images/square_4x4.jpg,Fri Jul 24 2020 19:17:36 GMT+0200 (Mitteleuropäische Sommerzeit),1595611056328,9.99355,main,17,incompatible
1699,426,21,,correct,Graduated High School,1595611655941,small,157,female,p,German,images/square_2x2.jpg,Fri Jul 24 2020 19:17:36 GMT+0200 (Mitteleuropäische Sommerzeit),1595611056328,9.99355,main,18,incompatible
1699,333,21,,correct,Graduated High School,1595611655941,large,157,female,q,German,images/square_4x4.jpg,Fri Jul 24 2020 19:17:36 GMT+0200 (Mitteleuropäische Sommerzeit),1595611056328,9.99355,main,19,incompatible
1699,421,21,,correct,Graduated High School,1595611655941,small,157,female,p,German,images/square_2x2.jpg,Fri Jul 24 2020 19:17:36 GMT+0200 (Mitteleuropäische Sommerzeit),1595611056328,9.99355,main,20,incompatible
1699,447,21,,correct,Graduated High School,1595611655941,small,157,female,p,German,images/square_2x2.jpg,Fri Jul 24 2020 19:17:36 GMT+0200 (Mitteleuropäische Sommerzeit),1595611056328,9.99355,main,21,incompatible
1699,404,21,,correct,Graduated High School,1595611655941,small,157,female,p,German,images/square_2x2.jpg,Fri Jul 24 2020 19:17:36 GMT+0200 (Mitteleuropäische Sommerzeit),1595611056328,9.99355,main,22,incompatible
1699,371,21,,correct,Graduated High School,1595611655941,small,157,female,p,German,images/square_2x2.jpg,Fri Jul 24 2020 19:17:36 GMT+0200 (Mitteleuropäische Sommerzeit),1595611056328,9.99355,main,23,incompatible
1699,407,21,,correct,Graduated High School,1595611655941,small,157,female,p,German,images/square_2x2.jpg,Fri Jul 24 2020 19:17:36 GMT+0200 (Mitteleuropäische Sommerzeit),1595611056328,9.99355,main,24,incompatible
1699,464,21,,correct,Graduated High School,1595611655941,large,157,female,q,German,images/square_4x4.jpg,Fri Jul 24 2020 19:17:36 GMT+0200 (Mitteleuropäische Sommerzeit),1595611056328,9.99355,main,25,incompatible
1699,644,21,,correct,Graduated High School,1595611655941,large,157,female,q,German,images/square_4x4.jpg,Fri Jul 24 2020 19:17:36 GMT+0200 (Mitteleuropäische Sommerzeit),1595611056328,9.99355,main,26,incompatible
1699,349,21,,correct,Graduated High School,1595611655941,large,157,female,q,German,images/square_4x4.jpg,Fri Jul 24 2020 19:17:36 GMT+0200 (Mitteleuropäische Sommerzeit),1595611056328,9.99355,main,27,incompatible
1699,333,21,,correct,Graduated High School,1595611655941,large,157,female,q,German,images/square_4x4.jpg,Fri Jul 24 2020 19:17:36 GMT+0200 (Mitteleuropäische Sommerzeit),1595611056328,9.99355,main,28,incompatible
1699,414,21,,correct,Graduated High School,1595611655941,small,157,female,p,German,images/square_2x2.jpg,Fri Jul 24 2020 19:17:36 GMT+0200 (Mitteleuropäische Sommerzeit),1595611056328,9.99355,main,29,incompatible
1699,371,21,,correct,Graduated High School,1595611655941,small,157,female,p,German,images/square_2x2.jpg,Fri Jul 24 2020 19:17:36 GMT+0200 (Mitteleuropäische Sommerzeit),1595611056328,9.99355,main,30,incompatible
1699,418,21,,correct,Graduated High School,1595611655941,large,157,female,q,German,images/square_4x4.jpg,Fri Jul 24 2020 19:17:36 GMT+0200 (Mitteleuropäische Sommerzeit),1595611056328,9.99355,main,31,incompatible
1699,485,21,,correct,Graduated High School,1595611655941,small,157,female,p,German,images/square_2x2.jpg,Fri Jul 24 2020 19:17:36 GMT+0200 (Mitteleuropäische Sommerzeit),1595611056328,9.99355,main,32,incompatible
1699,413,21,,correct,Graduated High School,1595611655941,small,157,female,p,German,images/square_2x2.jpg,Fri Jul 24 2020 19:17:36 GMT+0200 (Mitteleuropäische Sommerzeit),1595611056328,9.99355,main,33,incompatible
1699,464,21,,correct,Graduated High School,1595611655941,small,157,female,p,German,images/square_2x2.jpg,Fri Jul 24 2020 19:17:36 GMT+0200 (Mitteleuropäische Sommerzeit),1595611056328,9.99355,main,34,incompatible
1699,437,21,,correct,Graduated High School,1595611655941,large,157,female,q,German,images/square_4x4.jpg,Fri Jul 24 2020 19:17:36 GMT+0200 (Mitteleuropäische Sommerzeit),1595611056328,9.99355,main,35,incompatible
1699,346,21,,correct,Graduated High School,1595611655941,large,157,female,q,German,images/square_4x4.jpg,Fri Jul 24 2020 19:17:36 GMT+0200 (Mitteleuropäische Sommerzeit),1595611056328,9.99355,main,36,incompatible
1699,466,21,,correct,Graduated High School,1595611655941,large,157,female,q,German,images/square_4x4.jpg,Fri Jul 24 2020 19:17:36 GMT+0200 (Mitteleuropäische Sommerzeit),1595611056328,9.99355,main,37,incompatible
1699,330,21,,correct,Graduated High School,1595611655941,small,157,female,p,German,images/square_2x2.jpg,Fri Jul 24 2020 19:17:36 GMT+0200 (Mitteleuropäische Sommerzeit),1595611056328,9.99355,main,38,incompatible
1699,345,21,,correct,Graduated High School,1595611655941,small,157,female,p,German,images/square_2x2.jpg,Fri Jul 24 2020 19:17:36 GMT+0200 (Mitteleuropäische Sommerzeit),1595611056328,9.99355,main,39,incompatible
1699,413,21,,correct,Graduated High School,1595611655941,small,157,female,p,German,images/square_2x2.jpg,Fri Jul 24 2020 19:17:36 GMT+0200 (Mitteleuropäische Sommerzeit),1595611056328,9.99355,main,40,incompatible
1699,425,21,,correct,Graduated High School,1595611655941,small,157,female,p,German,images/square_2x2.jpg,Fri Jul 24 2020 19:17:36 GMT+0200 (Mitteleuropäische Sommerzeit),1595611056328,9.99355,main,41,incompatible
1699,394,21,,correct,Graduated High School,1595611655941,small,157,female,p,German,images/square_2x2.jpg,Fri Jul 24 2020 19:17:36 GMT+0200 (Mitteleuropäische Sommerzeit),1595611056328,9.99355,main,42,incompatible
1699,408,21,,correct,Graduated High School,1595611655941,large,157,female,q,German,images/square_4x4.jpg,Fri Jul 24 2020 19:17:36 GMT+0200 (Mitteleuropäische Sommerzeit),1595611056328,9.99355,main,43,incompatible
1699,411,21,,correct,Graduated High School,1595611655941,large,157,female,q,German,images/square_4x4.jpg,Fri Jul 24 2020 19:17:36 GMT+0200 (Mitteleuropäische Sommerzeit),1595611056328,9.99355,main,44,incompatible
1699,438,21,,correct,Graduated High School,1595611655941,large,157,female,q,German,images/square_4x4.jpg,Fri Jul 24 2020 19:17:36 GMT+0200 (Mitteleuropäische Sommerzeit),1595611056328,9.99355,main,45,incompatible
1699,436,21,,correct,Graduated High School,1595611655941,small,157,female,p,German,images/square_2x2.jpg,Fri Jul 24 2020 19:17:36 GMT+0200 (Mitteleuropäische Sommerzeit),1595611056328,9.99355,main,46,incompatible
1699,423,21,,correct,Graduated High School,1595611655941,small,157,female,p,German,images/square_2x2.jpg,Fri Jul 24 2020 19:17:36 GMT+0200 (Mitteleuropäische Sommerzeit),1595611056328,9.99355,main,47,incompatible
1699,493,21,,correct,Graduated High School,1595611655941,large,157,female,q,German,images/square_4x4.jpg,Fri Jul 24 2020 19:17:36 GMT+0200 (Mitteleuropäische Sommerzeit),1595611056328,9.99355,main,48,incompatible
1699,395,21,,correct,Graduated High School,1595611655941,large,157,female,q,German,images/square_4x4.jpg,Fri Jul 24 2020 19:17:36 GMT+0200 (Mitteleuropäische Sommerzeit),1595611056328,9.99355,main,49,incompatible
1699,522,21,,correct,Graduated High School,1595611655941,small,157,female,p,German,images/square_2x2.jpg,Fri Jul 24 2020 19:17:36 GMT+0200 (Mitteleuropäische Sommerzeit),1595611056328,9.99355,main,50,incompatible
1699,432,21,,correct,Graduated High School,1595611655941,large,157,female,q,German,images/square_4x4.jpg,Fri Jul 24 2020 19:17:36 GMT+0200 (Mitteleuropäische Sommerzeit),1595611056328,9.99355,main,51,incompatible
1699,406,21,,correct,Graduated High School,1595611655941,small,157,female,p,German,images/square_2x2.jpg,Fri Jul 24 2020 19:17:36 GMT+0200 (Mitteleuropäische Sommerzeit),1595611056328,9.99355,main,52,incompatible
1699,420,21,,correct,Graduated High School,1595611655941,large,157,female,q,German,images/square_4x4.jpg,Fri Jul 24 2020 19:17:36 GMT+0200 (Mitteleuropäische Sommerzeit),1595611056328,9.99355,main,53,incompatible
1699,357,21,,correct,Graduated High School,1595611655941,large,157,female,q,German,images/square_4x4.jpg,Fri Jul 24 2020 19:17:36 GMT+0200 (Mitteleuropäische Sommerzeit),1595611056328,9.99355,main,54,incompatible
1699,451,21,,correct,Graduated High School,1595611655941,small,157,female,p,German,images/square_2x2.jpg,Fri Jul 24 2020 19:17:36 GMT+0200 (Mitteleuropäische Sommerzeit),1595611056328,9.99355,main,55,incompatible
1699,371,21,,correct,Graduated High School,1595611655941,large,157,female,q,German,images/square_4x4.jpg,Fri Jul 24 2020 19:17:36 GMT+0200 (Mitteleuropäische Sommerzeit),1595611056328,9.99355,main,56,incompatible
1699,350,21,,correct,Graduated High School,1595611655941,large,157,female,q,German,images/square_4x4.jpg,Fri Jul 24 2020 19:17:36 GMT+0200 (Mitteleuropäische Sommerzeit),1595611056328,9.99355,main,57,incompatible
1699,356,21,,correct,Graduated High School,1595611655941,large,157,female,q,German,images/square_4x4.jpg,Fri Jul 24 2020 19:17:36 GMT+0200 (Mitteleuropäische Sommerzeit),1595611056328,9.99355,main,58,incompatible
1699,493,21,,correct,Graduated High School,1595611655941,small,157,female,p,German,images/square_2x2.jpg,Fri Jul 24 2020 19:17:36 GMT+0200 (Mitteleuropäische Sommerzeit),1595611056328,9.99355,main,59,incompatible
1699,406,21,,correct,Graduated High School,1595611655941,small,157,female,p,German,images/square_2x2.jpg,Fri Jul 24 2020 19:17:36 GMT+0200 (Mitteleuropäische Sommerzeit),1595611056328,9.99355,main,60,incompatible
1653,826,22,,correct,Graduated High School,1595594103637,large,157,female,q,german,images/square_4x4.jpg,Fri Jul 24 2020 14:24:49 GMT+0200 (CEST),1595593489557,10.234666666666667,practice,1,incompatible
1653,619,22,,correct,Graduated High School,1595594103637,large,157,female,q,german,images/square_4x4.jpg,Fri Jul 24 2020 14:24:49 GMT+0200 (CEST),1595593489557,10.234666666666667,practice,2,incompatible
1653,435,22,,correct,Graduated High School,1595594103637,small,157,female,p,german,images/square_2x2.jpg,Fri Jul 24 2020 14:24:49 GMT+0200 (CEST),1595593489557,10.234666666666667,practice,3,incompatible
1653,441,22,,correct,Graduated High School,1595594103637,small,157,female,p,german,images/square_2x2.jpg,Fri Jul 24 2020 14:24:49 GMT+0200 (CEST),1595593489557,10.234666666666667,practice,4,incompatible
1653,493,22,,correct,Graduated High School,1595594103637,large,157,female,q,german,images/square_4x4.jpg,Fri Jul 24 2020 14:24:49 GMT+0200 (CEST),1595593489557,10.234666666666667,practice,5,incompatible
1653,511,22,,correct,Graduated High School,1595594103637,small,157,female,p,german,images/square_2x2.jpg,Fri Jul 24 2020 14:24:49 GMT+0200 (CEST),1595593489557,10.234666666666667,practice,6,incompatible
1653,551,22,,correct,Graduated High School,1595594103637,small,157,female,p,german,images/square_2x2.jpg,Fri Jul 24 2020 14:24:49 GMT+0200 (CEST),1595593489557,10.234666666666667,practice,7,incompatible
1653,479,22,,correct,Graduated High School,1595594103637,small,157,female,p,german,images/square_2x2.jpg,Fri Jul 24 2020 14:24:49 GMT+0200 (CEST),1595593489557,10.234666666666667,practice,8,incompatible
1653,485,22,,correct,Graduated High School,1595594103637,large,157,female,q,german,images/square_4x4.jpg,Fri Jul 24 2020 14:24:49 GMT+0200 (CEST),1595593489557,10.234666666666667,practice,9,incompatible
1653,444,22,,correct,Graduated High School,1595594103637,small,157,female,p,german,images/square_2x2.jpg,Fri Jul 24 2020 14:24:49 GMT+0200 (CEST),1595593489557,10.234666666666667,practice,10,incompatible
1653,542,22,,correct,Graduated High School,1595594103637,small,157,female,p,german,images/square_2x2.jpg,Fri Jul 24 2020 14:24:49 GMT+0200 (CEST),1595593489557,10.234666666666667,main,1,incompatible
1653,406,22,,correct,Graduated High School,1595594103637,large,157,female,q,german,images/square_4x4.jpg,Fri Jul 24 2020 14:24:49 GMT+0200 (CEST),1595593489557,10.234666666666667,main,2,incompatible
1653,469,22,,correct,Graduated High School,1595594103637,small,157,female,p,german,images/square_2x2.jpg,Fri Jul 24 2020 14:24:49 GMT+0200 (CEST),1595593489557,10.234666666666667,main,3,incompatible
1653,421,22,,correct,Graduated High School,1595594103637,large,157,female,q,german,images/square_4x4.jpg,Fri Jul 24 2020 14:24:49 GMT+0200 (CEST),1595593489557,10.234666666666667,main,4,incompatible
1653,485,22,,correct,Graduated High School,1595594103637,small,157,female,p,german,images/square_2x2.jpg,Fri Jul 24 2020 14:24:49 GMT+0200 (CEST),1595593489557,10.234666666666667,main,5,incompatible
1653,438,22,,correct,Graduated High School,1595594103637,large,157,female,q,german,images/square_4x4.jpg,Fri Jul 24 2020 14:24:49 GMT+0200 (CEST),1595593489557,10.234666666666667,main,6,incompatible
1653,508,22,,correct,Graduated High School,1595594103637,small,157,female,p,german,images/square_2x2.jpg,Fri Jul 24 2020 14:24:49 GMT+0200 (CEST),1595593489557,10.234666666666667,main,7,incompatible
1653,680,22,,correct,Graduated High School,1595594103637,small,157,female,p,german,images/square_2x2.jpg,Fri Jul 24 2020 14:24:49 GMT+0200 (CEST),1595593489557,10.234666666666667,main,8,incompatible
1653,455,22,,correct,Graduated High School,1595594103637,large,157,female,q,german,images/square_4x4.jpg,Fri Jul 24 2020 14:24:49 GMT+0200 (CEST),1595593489557,10.234666666666667,main,9,incompatible
1653,474,22,,correct,Graduated High School,1595594103637,small,157,female,p,german,images/square_2x2.jpg,Fri Jul 24 2020 14:24:49 GMT+0200 (CEST),1595593489557,10.234666666666667,main,10,incompatible
1653,457,22,,correct,Graduated High School,1595594103637,small,157,female,p,german,images/square_2x2.jpg,Fri Jul 24 2020 14:24:49 GMT+0200 (CEST),1595593489557,10.234666666666667,main,11,incompatible
1653,457,22,,correct,Graduated High School,1595594103637,large,157,female,q,german,images/square_4x4.jpg,Fri Jul 24 2020 14:24:49 GMT+0200 (CEST),1595593489557,10.234666666666667,main,12,incompatible
1653,459,22,,correct,Graduated High School,1595594103637,large,157,female,q,german,images/square_4x4.jpg,Fri Jul 24 2020 14:24:49 GMT+0200 (CEST),1595593489557,10.234666666666667,main,13,incompatible
1653,441,22,,correct,Graduated High School,1595594103637,small,157,female,p,german,images/square_2x2.jpg,Fri Jul 24 2020 14:24:49 GMT+0200 (CEST),1595593489557,10.234666666666667,main,14,incompatible
1653,403,22,,correct,Graduated High School,1595594103637,large,157,female,q,german,images/square_4x4.jpg,Fri Jul 24 2020 14:24:49 GMT+0200 (CEST),1595593489557,10.234666666666667,main,15,incompatible
1653,409,22,,correct,Graduated High School,1595594103637,large,157,female,q,german,images/square_4x4.jpg,Fri Jul 24 2020 14:24:49 GMT+0200 (CEST),1595593489557,10.234666666666667,main,16,incompatible
1653,405,22,,correct,Graduated High School,1595594103637,large,157,female,q,german,images/square_4x4.jpg,Fri Jul 24 2020 14:24:49 GMT+0200 (CEST),1595593489557,10.234666666666667,main,17,incompatible
1653,406,22,,correct,Graduated High School,1595594103637,large,157,female,q,german,images/square_4x4.jpg,Fri Jul 24 2020 14:24:49 GMT+0200 (CEST),1595593489557,10.234666666666667,main,18,incompatible
1653,465,22,,correct,Graduated High School,1595594103637,small,157,female,p,german,images/square_2x2.jpg,Fri Jul 24 2020 14:24:49 GMT+0200 (CEST),1595593489557,10.234666666666667,main,19,incompatible
1653,428,22,,correct,Graduated High School,1595594103637,small,157,female,p,german,images/square_2x2.jpg,Fri Jul 24 2020 14:24:49 GMT+0200 (CEST),1595593489557,10.234666666666667,main,20,incompatible
1653,427,22,,correct,Graduated High School,1595594103637,large,157,female,q,german,images/square_4x4.jpg,Fri Jul 24 2020 14:24:49 GMT+0200 (CEST),1595593489557,10.234666666666667,main,21,incompatible
1653,398,22,,correct,Graduated High School,1595594103637,large,157,female,q,german,images/square_4x4.jpg,Fri Jul 24 2020 14:24:49 GMT+0200 (CEST),1595593489557,10.234666666666667,main,22,incompatible
1653,428,22,,correct,Graduated High School,1595594103637,large,157,female,q,german,images/square_4x4.jpg,Fri Jul 24 2020 14:24:49 GMT+0200 (CEST),1595593489557,10.234666666666667,main,23,incompatible
1653,483,22,,correct,Graduated High School,1595594103637,small,157,female,p,german,images/square_2x2.jpg,Fri Jul 24 2020 14:24:49 GMT+0200 (CEST),1595593489557,10.234666666666667,main,24,incompatible
1653,484,22,,correct,Graduated High School,1595594103637,small,157,female,p,german,images/square_2x2.jpg,Fri Jul 24 2020 14:24:49 GMT+0200 (CEST),1595593489557,10.234666666666667,main,25,incompatible
1653,423,22,,correct,Graduated High School,1595594103637,small,157,female,p,german,images/square_2x2.jpg,Fri Jul 24 2020 14:24:49 GMT+0200 (CEST),1595593489557,10.234666666666667,main,26,incompatible
1653,395,22,,correct,Graduated High School,1595594103637,large,157,female,q,german,images/square_4x4.jpg,Fri Jul 24 2020 14:24:49 GMT+0200 (CEST),1595593489557,10.234666666666667,main,27,incompatible
1653,441,22,,correct,Graduated High School,1595594103637,large,157,female,q,german,images/square_4x4.jpg,Fri Jul 24 2020 14:24:49 GMT+0200 (CEST),1595593489557,10.234666666666667,main,28,incompatible
1653,452,22,,incorrect,Graduated High School,1595594103637,small,157,female,q,german,images/square_2x2.jpg,Fri Jul 24 2020 14:24:49 GMT+0200 (CEST),1595593489557,10.234666666666667,main,29,incompatible
1653,397,22,,correct,Graduated High School,1595594103637,large,157,female,q,german,images/square_4x4.jpg,Fri Jul 24 2020 14:24:49 GMT+0200 (CEST),1595593489557,10.234666666666667,main,30,incompatible
1653,436,22,,correct,Graduated High School,1595594103637,large,157,female,q,german,images/square_4x4.jpg,Fri Jul 24 2020 14:24:49 GMT+0200 (CEST),1595593489557,10.234666666666667,main,31,incompatible
1653,545,22,,correct,Graduated High School,1595594103637,small,157,female,p,german,images/square_2x2.jpg,Fri Jul 24 2020 14:24:49 GMT+0200 (CEST),1595593489557,10.234666666666667,main,32,incompatible
1653,462,22,,correct,Graduated High School,1595594103637,large,157,female,q,german,images/square_4x4.jpg,Fri Jul 24 2020 14:24:49 GMT+0200 (CEST),1595593489557,10.234666666666667,main,33,incompatible
1653,482,22,,correct,Graduated High School,1595594103637,small,157,female,p,german,images/square_2x2.jpg,Fri Jul 24 2020 14:24:49 GMT+0200 (CEST),1595593489557,10.234666666666667,main,34,incompatible
1653,495,22,,correct,Graduated High School,1595594103637,small,157,female,p,german,images/square_2x2.jpg,Fri Jul 24 2020 14:24:49 GMT+0200 (CEST),1595593489557,10.234666666666667,main,35,incompatible
1653,468,22,,correct,Graduated High School,1595594103637,small,157,female,p,german,images/square_2x2.jpg,Fri Jul 24 2020 14:24:49 GMT+0200 (CEST),1595593489557,10.234666666666667,main,36,incompatible
1653,434,22,,correct,Graduated High School,1595594103637,small,157,female,p,german,images/square_2x2.jpg,Fri Jul 24 2020 14:24:49 GMT+0200 (CEST),1595593489557,10.234666666666667,main,37,incompatible
1653,407,22,,correct,Graduated High School,1595594103637,large,157,female,q,german,images/square_4x4.jpg,Fri Jul 24 2020 14:24:49 GMT+0200 (CEST),1595593489557,10.234666666666667,main,38,incompatible
1653,449,22,,correct,Graduated High School,1595594103637,small,157,female,p,german,images/square_2x2.jpg,Fri Jul 24 2020 14:24:49 GMT+0200 (CEST),1595593489557,10.234666666666667,main,39,incompatible
1653,455,22,,correct,Graduated High School,1595594103637,small,157,female,p,german,images/square_2x2.jpg,Fri Jul 24 2020 14:24:49 GMT+0200 (CEST),1595593489557,10.234666666666667,main,40,incompatible
1653,474,22,,correct,Graduated High School,1595594103637,large,157,female,q,german,images/square_4x4.jpg,Fri Jul 24 2020 14:24:49 GMT+0200 (CEST),1595593489557,10.234666666666667,main,41,incompatible
1653,397,22,,correct,Graduated High School,1595594103637,large,157,female,q,german,images/square_4x4.jpg,Fri Jul 24 2020 14:24:49 GMT+0200 (CEST),1595593489557,10.234666666666667,main,42,incompatible
1653,398,22,,correct,Graduated High School,1595594103637,large,157,female,q,german,images/square_4x4.jpg,Fri Jul 24 2020 14:24:49 GMT+0200 (CEST),1595593489557,10.234666666666667,main,43,incompatible
1653,415,22,,correct,Graduated High School,1595594103637,large,157,female,q,german,images/square_4x4.jpg,Fri Jul 24 2020 14:24:49 GMT+0200 (CEST),1595593489557,10.234666666666667,main,44,incompatible
1653,474,22,,correct,Graduated High School,1595594103637,small,157,female,p,german,images/square_2x2.jpg,Fri Jul 24 2020 14:24:49 GMT+0200 (CEST),1595593489557,10.234666666666667,main,45,incompatible
1653,474,22,,correct,Graduated High School,1595594103637,small,157,female,p,german,images/square_2x2.jpg,Fri Jul 24 2020 14:24:49 GMT+0200 (CEST),1595593489557,10.234666666666667,main,46,incompatible
1653,608,22,,correct,Graduated High School,1595594103637,large,157,female,q,german,images/square_4x4.jpg,Fri Jul 24 2020 14:24:49 GMT+0200 (CEST),1595593489557,10.234666666666667,main,47,incompatible
1653,451,22,,correct,Graduated High School,1595594103637,small,157,female,p,german,images/square_2x2.jpg,Fri Jul 24 2020 14:24:49 GMT+0200 (CEST),1595593489557,10.234666666666667,main,48,incompatible
1653,567,22,,correct,Graduated High School,1595594103637,small,157,female,p,german,images/square_2x2.jpg,Fri Jul 24 2020 14:24:49 GMT+0200 (CEST),1595593489557,10.234666666666667,main,49,incompatible
1653,463,22,,correct,Graduated High School,1595594103637,large,157,female,q,german,images/square_4x4.jpg,Fri Jul 24 2020 14:24:49 GMT+0200 (CEST),1595593489557,10.234666666666667,main,50,incompatible
1653,520,22,,correct,Graduated High School,1595594103637,large,157,female,q,german,images/square_4x4.jpg,Fri Jul 24 2020 14:24:49 GMT+0200 (CEST),1595593489557,10.234666666666667,main,51,incompatible
1653,443,22,,correct,Graduated High School,1595594103637,small,157,female,p,german,images/square_2x2.jpg,Fri Jul 24 2020 14:24:49 GMT+0200 (CEST),1595593489557,10.234666666666667,main,52,incompatible
1653,648,22,,correct,Graduated High School,1595594103637,small,157,female,p,german,images/square_2x2.jpg,Fri Jul 24 2020 14:24:49 GMT+0200 (CEST),1595593489557,10.234666666666667,main,53,incompatible
1653,398,22,,correct,Graduated High School,1595594103637,large,157,female,q,german,images/square_4x4.jpg,Fri Jul 24 2020 14:24:49 GMT+0200 (CEST),1595593489557,10.234666666666667,main,54,incompatible
1653,454,22,,correct,Graduated High School,1595594103637,large,157,female,q,german,images/square_4x4.jpg,Fri Jul 24 2020 14:24:49 GMT+0200 (CEST),1595593489557,10.234666666666667,main,55,incompatible
1653,506,22,,correct,Graduated High School,1595594103637,large,157,female,q,german,images/square_4x4.jpg,Fri Jul 24 2020 14:24:49 GMT+0200 (CEST),1595593489557,10.234666666666667,main,56,incompatible
1653,538,22,,correct,Graduated High School,1595594103637,small,157,female,p,german,images/square_2x2.jpg,Fri Jul 24 2020 14:24:49 GMT+0200 (CEST),1595593489557,10.234666666666667,main,57,incompatible
1653,607,22,,correct,Graduated High School,1595594103637,large,157,female,q,german,images/square_4x4.jpg,Fri Jul 24 2020 14:24:49 GMT+0200 (CEST),1595593489557,10.234666666666667,main,58,incompatible
1653,471,22,,correct,Graduated High School,1595594103637,small,157,female,p,german,images/square_2x2.jpg,Fri Jul 24 2020 14:24:49 GMT+0200 (CEST),1595593489557,10.234666666666667,main,59,incompatible
1653,489,22,,correct,Graduated High School,1595594103637,small,157,female,p,german,images/square_2x2.jpg,Fri Jul 24 2020 14:24:49 GMT+0200 (CEST),1595593489557,10.234666666666667,main,60,incompatible
1653,2131,22,,timeout,Graduated High School,1595594103637,large,157,female,q,german,images/square_4x4.jpg,Fri Jul 24 2020 14:24:49 GMT+0200 (CEST),1595593489557,10.234666666666667,practice,1,compatible
1653,584,22,,correct,Graduated High School,1595594103637,large,157,female,p,german,images/square_4x4.jpg,Fri Jul 24 2020 14:24:49 GMT+0200 (CEST),1595593489557,10.234666666666667,practice,2,compatible
1653,472,22,,correct,Graduated High School,1595594103637,small,157,female,q,german,images/square_2x2.jpg,Fri Jul 24 2020 14:24:49 GMT+0200 (CEST),1595593489557,10.234666666666667,practice,3,compatible
1653,568,22,,correct,Graduated High School,1595594103637,small,157,female,q,german,images/square_2x2.jpg,Fri Jul 24 2020 14:24:49 GMT+0200 (CEST),1595593489557,10.234666666666667,practice,4,compatible
1653,462,22,,correct,Graduated High School,1595594103637,large,157,female,p,german,images/square_4x4.jpg,Fri Jul 24 2020 14:24:49 GMT+0200 (CEST),1595593489557,10.234666666666667,practice,5,compatible
1653,438,22,,correct,Graduated High School,1595594103637,small,157,female,q,german,images/square_2x2.jpg,Fri Jul 24 2020 14:24:49 GMT+0200 (CEST),1595593489557,10.234666666666667,practice,6,compatible
1653,519,22,,correct,Graduated High School,1595594103637,large,157,female,p,german,images/square_4x4.jpg,Fri Jul 24 2020 14:24:49 GMT+0200 (CEST),1595593489557,10.234666666666667,practice,7,compatible
1653,451,22,,correct,Graduated High School,1595594103637,large,157,female,p,german,images/square_4x4.jpg,Fri Jul 24 2020 14:24:49 GMT+0200 (CEST),1595593489557,10.234666666666667,practice,8,compatible
1653,432,22,,correct,Graduated High School,1595594103637,small,157,female,q,german,images/square_2x2.jpg,Fri Jul 24 2020 14:24:49 GMT+0200 (CEST),1595593489557,10.234666666666667,practice,9,compatible
1653,655,22,,correct,Graduated High School,1595594103637,small,157,female,q,german,images/square_2x2.jpg,Fri Jul 24 2020 14:24:49 GMT+0200 (CEST),1595593489557,10.234666666666667,practice,10,compatible
1653,418,22,,correct,Graduated High School,1595594103637,large,157,female,p,german,images/square_4x4.jpg,Fri Jul 24 2020 14:24:49 GMT+0200 (CEST),1595593489557,10.234666666666667,practice,11,compatible
1653,436,22,,incorrect,Graduated High School,1595594103637,large,157,female,q,german,images/square_4x4.jpg,Fri Jul 24 2020 14:24:49 GMT+0200 (CEST),1595593489557,10.234666666666667,practice,12,compatible
1653,402,22,,correct,Graduated High School,1595594103637,large,157,female,p,german,images/square_4x4.jpg,Fri Jul 24 2020 14:24:49 GMT+0200 (CEST),1595593489557,10.234666666666667,practice,13,compatible
1653,561,22,,correct,Graduated High School,1595594103637,large,157,female,p,german,images/square_4x4.jpg,Fri Jul 24 2020 14:24:49 GMT+0200 (CEST),1595593489557,10.234666666666667,practice,14,compatible
1653,517,22,,correct,Graduated High School,1595594103637,large,157,female,p,german,images/square_4x4.jpg,Fri Jul 24 2020 14:24:49 GMT+0200 (CEST),1595593489557,10.234666666666667,practice,15,compatible
1653,484,22,,correct,Graduated High School,1595594103637,large,157,female,p,german,images/square_4x4.jpg,Fri Jul 24 2020 14:24:49 GMT+0200 (CEST),1595593489557,10.234666666666667,practice,16,compatible
1653,445,22,,correct,Graduated High School,1595594103637,small,157,female,q,german,images/square_2x2.jpg,Fri Jul 24 2020 14:24:49 GMT+0200 (CEST),1595593489557,10.234666666666667,practice,17,compatible
1653,442,22,,correct,Graduated High School,1595594103637,small,157,female,q,german,images/square_2x2.jpg,Fri Jul 24 2020 14:24:49 GMT+0200 (CEST),1595593489557,10.234666666666667,practice,18,compatible
1653,473,22,,correct,Graduated High School,1595594103637,small,157,female,q,german,images/square_2x2.jpg,Fri Jul 24 2020 14:24:49 GMT+0200 (CEST),1595593489557,10.234666666666667,practice,19,compatible
1653,462,22,,correct,Graduated High School,1595594103637,small,157,female,q,german,images/square_2x2.jpg,Fri Jul 24 2020 14:24:49 GMT+0200 (CEST),1595593489557,10.234666666666667,practice,20,compatible
1653,523,22,,correct,Graduated High School,1595594103637,large,157,female,p,german,images/square_4x4.jpg,Fri Jul 24 2020 14:24:49 GMT+0200 (CEST),1595593489557,10.234666666666667,main,1,compatible
1653,572,22,,correct,Graduated High School,1595594103637,large,157,female,p,german,images/square_4x4.jpg,Fri Jul 24 2020 14:24:49 GMT+0200 (CEST),1595593489557,10.234666666666667,main,2,compatible
1653,509,22,,correct,Graduated High School,1595594103637,large,157,female,p,german,images/square_4x4.jpg,Fri Jul 24 2020 14:24:49 GMT+0200 (CEST),1595593489557,10.234666666666667,main,3,compatible
1653,508,22,,correct,Graduated High School,1595594103637,small,157,female,q,german,images/square_2x2.jpg,Fri Jul 24 2020 14:24:49 GMT+0200 (CEST),1595593489557,10.234666666666667,main,4,compatible
1653,704,22,,incorrect,Graduated High School,1595594103637,small,157,female,p,german,images/square_2x2.jpg,Fri Jul 24 2020 14:24:49 GMT+0200 (CEST),1595593489557,10.234666666666667,main,5,compatible
1653,429,22,,correct,Graduated High School,1595594103637,large,157,female,p,german,images/square_4x4.jpg,Fri Jul 24 2020 14:24:49 GMT+0200 (CEST),1595593489557,10.234666666666667,main,6,compatible
1653,761,22,,correct,Graduated High School,1595594103637,large,157,female,p,german,images/square_4x4.jpg,Fri Jul 24 2020 14:24:49 GMT+0200 (CEST),1595593489557,10.234666666666667,main,7,compatible
1653,463,22,,correct,Graduated High School,1595594103637,small,157,female,q,german,images/square_2x2.jpg,Fri Jul 24 2020 14:24:49 GMT+0200 (CEST),1595593489557,10.234666666666667,main,8,compatible
1653,462,22,,correct,Graduated High School,1595594103637,large,157,female,p,german,images/square_4x4.jpg,Fri Jul 24 2020 14:24:49 GMT+0200 (CEST),1595593489557,10.234666666666667,main,9,compatible
1653,483,22,,correct,Graduated High School,1595594103637,large,157,female,p,german,images/square_4x4.jpg,Fri Jul 24 2020 14:24:49 GMT+0200 (CEST),1595593489557,10.234666666666667,main,10,compatible
1653,529,22,,correct,Graduated High School,1595594103637,large,157,female,p,german,images/square_4x4.jpg,Fri Jul 24 2020 14:24:49 GMT+0200 (CEST),1595593489557,10.234666666666667,main,11,compatible
1653,340,22,,correct,Graduated High School,1595594103637,small,157,female,q,german,images/square_2x2.jpg,Fri Jul 24 2020 14:24:49 GMT+0200 (CEST),1595593489557,10.234666666666667,main,12,compatible
1653,644,22,,correct,Graduated High School,1595594103637,small,157,female,q,german,images/square_2x2.jpg,Fri Jul 24 2020 14:24:49 GMT+0200 (CEST),1595593489557,10.234666666666667,main,13,compatible
1653,453,22,,correct,Graduated High School,1595594103637,small,157,female,q,german,images/square_2x2.jpg,Fri Jul 24 2020 14:24:49 GMT+0200 (CEST),1595593489557,10.234666666666667,main,14,compatible
1653,509,22,,correct,Graduated High School,1595594103637,large,157,female,p,german,images/square_4x4.jpg,Fri Jul 24 2020 14:24:49 GMT+0200 (CEST),1595593489557,10.234666666666667,main,15,compatible
1653,491,22,,correct,Graduated High School,1595594103637,small,157,female,q,german,images/square_2x2.jpg,Fri Jul 24 2020 14:24:49 GMT+0200 (CEST),1595593489557,10.234666666666667,main,16,compatible
1653,500,22,,correct,Graduated High School,1595594103637,large,157,female,p,german,images/square_4x4.jpg,Fri Jul 24 2020 14:24:49 GMT+0200 (CEST),1595593489557,10.234666666666667,main,17,compatible
1653,536,22,,correct,Graduated High School,1595594103637,large,157,female,p,german,images/square_4x4.jpg,Fri Jul 24 2020 14:24:49 GMT+0200 (CEST),1595593489557,10.234666666666667,main,18,compatible
1653,572,22,,correct,Graduated High School,1595594103637,large,157,female,p,german,images/square_4x4.jpg,Fri Jul 24 2020 14:24:49 GMT+0200 (CEST),1595593489557,10.234666666666667,main,19,compatible
1653,376,22,,correct,Graduated High School,1595594103637,small,157,female,q,german,images/square_2x2.jpg,Fri Jul 24 2020 14:24:49 GMT+0200 (CEST),1595593489557,10.234666666666667,main,20,compatible
1653,432,22,,correct,Graduated High School,1595594103637,small,157,female,q,german,images/square_2x2.jpg,Fri Jul 24 2020 14:24:49 GMT+0200 (CEST),1595593489557,10.234666666666667,main,21,compatible
1653,454,22,,correct,Graduated High School,1595594103637,large,157,female,p,german,images/square_4x4.jpg,Fri Jul 24 2020 14:24:49 GMT+0200 (CEST),1595593489557,10.234666666666667,main,22,compatible
1653,496,22,,correct,Graduated High School,1595594103637,small,157,female,q,german,images/square_2x2.jpg,Fri Jul 24 2020 14:24:49 GMT+0200 (CEST),1595593489557,10.234666666666667,main,23,compatible
1653,471,22,,correct,Graduated High School,1595594103637,large,157,female,p,german,images/square_4x4.jpg,Fri Jul 24 2020 14:24:49 GMT+0200 (CEST),1595593489557,10.234666666666667,main,24,compatible
1653,487,22,,correct,Graduated High School,1595594103637,large,157,female,p,german,images/square_4x4.jpg,Fri Jul 24 2020 14:24:49 GMT+0200 (CEST),1595593489557,10.234666666666667,main,25,compatible
1653,443,22,,correct,Graduated High School,1595594103637,small,157,female,q,german,images/square_2x2.jpg,Fri Jul 24 2020 14:24:49 GMT+0200 (CEST),1595593489557,10.234666666666667,main,26,compatible
1653,515,22,,correct,Graduated High School,1595594103637,large,157,female,p,german,images/square_4x4.jpg,Fri Jul 24 2020 14:24:49 GMT+0200 (CEST),1595593489557,10.234666666666667,main,27,compatible
1653,539,22,,correct,Graduated High School,1595594103637,small,157,female,q,german,images/square_2x2.jpg,Fri Jul 24 2020 14:24:49 GMT+0200 (CEST),1595593489557,10.234666666666667,main,28,compatible
1653,475,22,,correct,Graduated High School,1595594103637,small,157,female,q,german,images/square_2x2.jpg,Fri Jul 24 2020 14:24:49 GMT+0200 (CEST),1595593489557,10.234666666666667,main,29,compatible
1653,401,22,,correct,Graduated High School,1595594103637,small,157,female,q,german,images/square_2x2.jpg,Fri Jul 24 2020 14:24:49 GMT+0200 (CEST),1595593489557,10.234666666666667,main,30,compatible
1653,428,22,,correct,Graduated High School,1595594103637,small,157,female,q,german,images/square_2x2.jpg,Fri Jul 24 2020 14:24:49 GMT+0200 (CEST),1595593489557,10.234666666666667,main,31,compatible
1653,398,22,,correct,Graduated High School,1595594103637,small,157,female,q,german,images/square_2x2.jpg,Fri Jul 24 2020 14:24:49 GMT+0200 (CEST),1595593489557,10.234666666666667,main,32,compatible
1653,475,22,,correct,Graduated High School,1595594103637,large,157,female,p,german,images/square_4x4.jpg,Fri Jul 24 2020 14:24:49 GMT+0200 (CEST),1595593489557,10.234666666666667,main,33,compatible
1653,432,22,,correct,Graduated High School,1595594103637,small,157,female,q,german,images/square_2x2.jpg,Fri Jul 24 2020 14:24:49 GMT+0200 (CEST),1595593489557,10.234666666666667,main,34,compatible
1653,466,22,,correct,Graduated High School,1595594103637,small,157,female,q,german,images/square_2x2.jpg,Fri Jul 24 2020 14:24:49 GMT+0200 (CEST),1595593489557,10.234666666666667,main,35,compatible
1653,468,22,,correct,Graduated High School,1595594103637,large,157,female,p,german,images/square_4x4.jpg,Fri Jul 24 2020 14:24:49 GMT+0200 (CEST),1595593489557,10.234666666666667,main,36,compatible
1653,436,22,,correct,Graduated High School,1595594103637,large,157,female,p,german,images/square_4x4.jpg,Fri Jul 24 2020 14:24:49 GMT+0200 (CEST),1595593489557,10.234666666666667,main,37,compatible
1653,432,22,,correct,Graduated High School,1595594103637,small,157,female,q,german,images/square_2x2.jpg,Fri Jul 24 2020 14:24:49 GMT+0200 (CEST),1595593489557,10.234666666666667,main,38,compatible
1653,432,22,,correct,Graduated High School,1595594103637,small,157,female,q,german,images/square_2x2.jpg,Fri Jul 24 2020 14:24:49 GMT+0200 (CEST),1595593489557,10.234666666666667,main,39,compatible
1653,546,22,,correct,Graduated High School,1595594103637,small,157,female,q,german,images/square_2x2.jpg,Fri Jul 24 2020 14:24:49 GMT+0200 (CEST),1595593489557,10.234666666666667,main,40,compatible
1653,505,22,,correct,Graduated High School,1595594103637,large,157,female,p,german,images/square_4x4.jpg,Fri Jul 24 2020 14:24:49 GMT+0200 (CEST),1595593489557,10.234666666666667,main,41,compatible
1653,440,22,,correct,Graduated High School,1595594103637,large,157,female,p,german,images/square_4x4.jpg,Fri Jul 24 2020 14:24:49 GMT+0200 (CEST),1595593489557,10.234666666666667,main,42,compatible
1653,461,22,,correct,Graduated High School,1595594103637,small,157,female,q,german,images/square_2x2.jpg,Fri Jul 24 2020 14:24:49 GMT+0200 (CEST),1595593489557,10.234666666666667,main,43,compatible
1653,499,22,,correct,Graduated High School,1595594103637,large,157,female,p,german,images/square_4x4.jpg,Fri Jul 24 2020 14:24:49 GMT+0200 (CEST),1595593489557,10.234666666666667,main,44,compatible
1653,646,22,,correct,Graduated High School,1595594103637,large,157,female,p,german,images/square_4x4.jpg,Fri Jul 24 2020 14:24:49 GMT+0200 (CEST),1595593489557,10.234666666666667,main,45,compatible
1653,433,22,,correct,Graduated High School,1595594103637,small,157,female,q,german,images/square_2x2.jpg,Fri Jul 24 2020 14:24:49 GMT+0200 (CEST),1595593489557,10.234666666666667,main,46,compatible
1653,592,22,,correct,Graduated High School,1595594103637,large,157,female,p,german,images/square_4x4.jpg,Fri Jul 24 2020 14:24:49 GMT+0200 (CEST),1595593489557,10.234666666666667,main,47,compatible
1653,444,22,,correct,Graduated High School,1595594103637,large,157,female,p,german,images/square_4x4.jpg,Fri Jul 24 2020 14:24:49 GMT+0200 (CEST),1595593489557,10.234666666666667,main,48,compatible
1653,480,22,,correct,Graduated High School,1595594103637,small,157,female,q,german,images/square_2x2.jpg,Fri Jul 24 2020 14:24:49 GMT+0200 (CEST),1595593489557,10.234666666666667,main,49,compatible
1653,416,22,,correct,Graduated High School,1595594103637,small,157,female,q,german,images/square_2x2.jpg,Fri Jul 24 2020 14:24:49 GMT+0200 (CEST),1595593489557,10.234666666666667,main,50,compatible
1653,524,22,,correct,Graduated High School,1595594103637,large,157,female,p,german,images/square_4x4.jpg,Fri Jul 24 2020 14:24:49 GMT+0200 (CEST),1595593489557,10.234666666666667,main,51,compatible
1653,528,22,,correct,Graduated High School,1595594103637,small,157,female,q,german,images/square_2x2.jpg,Fri Jul 24 2020 14:24:49 GMT+0200 (CEST),1595593489557,10.234666666666667,main,52,compatible
1653,563,22,,correct,Graduated High School,1595594103637,small,157,female,q,german,images/square_2x2.jpg,Fri Jul 24 2020 14:24:49 GMT+0200 (CEST),1595593489557,10.234666666666667,main,53,compatible
1653,432,22,,correct,Graduated High School,1595594103637,small,157,female,q,german,images/square_2x2.jpg,Fri Jul 24 2020 14:24:49 GMT+0200 (CEST),1595593489557,10.234666666666667,main,54,compatible
1653,405,22,,correct,Graduated High School,1595594103637,small,157,female,q,german,images/square_2x2.jpg,Fri Jul 24 2020 14:24:49 GMT+0200 (CEST),1595593489557,10.234666666666667,main,55,compatible
1653,560,22,,correct,Graduated High School,1595594103637,small,157,female,q,german,images/square_2x2.jpg,Fri Jul 24 2020 14:24:49 GMT+0200 (CEST),1595593489557,10.234666666666667,main,56,compatible
1653,444,22,,correct,Graduated High School,1595594103637,large,157,female,p,german,images/square_4x4.jpg,Fri Jul 24 2020 14:24:49 GMT+0200 (CEST),1595593489557,10.234666666666667,main,57,compatible
1653,381,22,,correct,Graduated High School,1595594103637,large,157,female,p,german,images/square_4x4.jpg,Fri Jul 24 2020 14:24:49 GMT+0200 (CEST),1595593489557,10.234666666666667,main,58,compatible
1653,462,22,,correct,Graduated High School,1595594103637,large,157,female,p,german,images/square_4x4.jpg,Fri Jul 24 2020 14:24:49 GMT+0200 (CEST),1595593489557,10.234666666666667,main,59,compatible
1653,449,22,,correct,Graduated High School,1595594103637,large,157,female,p,german,images/square_4x4.jpg,Fri Jul 24 2020 14:24:49 GMT+0200 (CEST),1595593489557,10.234666666666667,main,60,compatible
1638,2864,25,,timeout,Graduated College,1595580681007,small,157,female,p,German,images/square_2x2.jpg,Fri Jul 24 2020 10:40:07 GMT+0200 (Central European Summer Time),1595580007211,11.229933333333333,practice,1,compatible
1638,2523,25,,timeout,Graduated College,1595580681007,small,157,female,p,German,images/square_2x2.jpg,Fri Jul 24 2020 10:40:07 GMT+0200 (Central European Summer Time),1595580007211,11.229933333333333,practice,2,compatible
1638,1950,25,,correct,Graduated College,1595580681007,large,157,female,p,German,images/square_4x4.jpg,Fri Jul 24 2020 10:40:07 GMT+0200 (Central European Summer Time),1595580007211,11.229933333333333,practice,3,compatible
1638,1029,25,,correct,Graduated College,1595580681007,small,157,female,q,German,images/square_2x2.jpg,Fri Jul 24 2020 10:40:07 GMT+0200 (Central European Summer Time),1595580007211,11.229933333333333,practice,4,compatible
1638,880,25,,correct,Graduated College,1595580681007,small,157,female,q,German,images/square_2x2.jpg,Fri Jul 24 2020 10:40:07 GMT+0200 (Central European Summer Time),1595580007211,11.229933333333333,practice,5,compatible
1638,418,25,,correct,Graduated College,1595580681007,large,157,female,p,German,images/square_4x4.jpg,Fri Jul 24 2020 10:40:07 GMT+0200 (Central European Summer Time),1595580007211,11.229933333333333,practice,6,compatible
1638,701,25,,correct,Graduated College,1595580681007,small,157,female,q,German,images/square_2x2.jpg,Fri Jul 24 2020 10:40:07 GMT+0200 (Central European Summer Time),1595580007211,11.229933333333333,practice,7,compatible
1638,655,25,,correct,Graduated College,1595580681007,small,157,female,q,German,images/square_2x2.jpg,Fri Jul 24 2020 10:40:07 GMT+0200 (Central European Summer Time),1595580007211,11.229933333333333,practice,8,compatible
1638,571,25,,correct,Graduated College,1595580681007,large,157,female,p,German,images/square_4x4.jpg,Fri Jul 24 2020 10:40:07 GMT+0200 (Central European Summer Time),1595580007211,11.229933333333333,practice,9,compatible
1638,611,25,,correct,Graduated College,1595580681007,small,157,female,q,German,images/square_2x2.jpg,Fri Jul 24 2020 10:40:07 GMT+0200 (Central European Summer Time),1595580007211,11.229933333333333,practice,10,compatible
1638,620,25,,correct,Graduated College,1595580681007,small,157,female,q,German,images/square_2x2.jpg,Fri Jul 24 2020 10:40:07 GMT+0200 (Central European Summer Time),1595580007211,11.229933333333333,main,1,compatible
1638,604,25,,correct,Graduated College,1595580681007,small,157,female,q,German,images/square_2x2.jpg,Fri Jul 24 2020 10:40:07 GMT+0200 (Central European Summer Time),1595580007211,11.229933333333333,main,2,compatible
1638,469,25,,correct,Graduated College,1595580681007,large,157,female,p,German,images/square_4x4.jpg,Fri Jul 24 2020 10:40:07 GMT+0200 (Central European Summer Time),1595580007211,11.229933333333333,main,3,compatible
1638,549,25,,correct,Graduated College,1595580681007,large,157,female,p,German,images/square_4x4.jpg,Fri Jul 24 2020 10:40:07 GMT+0200 (Central European Summer Time),1595580007211,11.229933333333333,main,4,compatible
1638,547,25,,correct,Graduated College,1595580681007,large,157,female,p,German,images/square_4x4.jpg,Fri Jul 24 2020 10:40:07 GMT+0200 (Central European Summer Time),1595580007211,11.229933333333333,main,5,compatible
1638,518,25,,correct,Graduated College,1595580681007,large,157,female,p,German,images/square_4x4.jpg,Fri Jul 24 2020 10:40:07 GMT+0200 (Central European Summer Time),1595580007211,11.229933333333333,main,6,compatible
1638,567,25,,correct,Graduated College,1595580681007,large,157,female,p,German,images/square_4x4.jpg,Fri Jul 24 2020 10:40:07 GMT+0200 (Central European Summer Time),1595580007211,11.229933333333333,main,7,compatible
1638,521,25,,correct,Graduated College,1595580681007,small,157,female,q,German,images/square_2x2.jpg,Fri Jul 24 2020 10:40:07 GMT+0200 (Central European Summer Time),1595580007211,11.229933333333333,main,8,compatible
1638,509,25,,correct,Graduated College,1595580681007,large,157,female,p,German,images/square_4x4.jpg,Fri Jul 24 2020 10:40:07 GMT+0200 (Central European Summer Time),1595580007211,11.229933333333333,main,9,compatible
1638,495,25,,correct,Graduated College,1595580681007,small,157,female,q,German,images/square_2x2.jpg,Fri Jul 24 2020 10:40:07 GMT+0200 (Central European Summer Time),1595580007211,11.229933333333333,main,10,compatible
1638,513,25,,correct,Graduated College,1595580681007,large,157,female,p,German,images/square_4x4.jpg,Fri Jul 24 2020 10:40:07 GMT+0200 (Central European Summer Time),1595580007211,11.229933333333333,main,11,compatible
1638,537,25,,correct,Graduated College,1595580681007,small,157,female,q,German,images/square_2x2.jpg,Fri Jul 24 2020 10:40:07 GMT+0200 (Central European Summer Time),1595580007211,11.229933333333333,main,12,compatible
1638,472,25,,correct,Graduated College,1595580681007,large,157,female,p,German,images/square_4x4.jpg,Fri Jul 24 2020 10:40:07 GMT+0200 (Central European Summer Time),1595580007211,11.229933333333333,main,13,compatible
1638,472,25,,correct,Graduated College,1595580681007,small,157,female,q,German,images/square_2x2.jpg,Fri Jul 24 2020 10:40:07 GMT+0200 (Central European Summer Time),1595580007211,11.229933333333333,main,14,compatible
1638,544,25,,correct,Graduated College,1595580681007,large,157,female,p,German,images/square_4x4.jpg,Fri Jul 24 2020 10:40:07 GMT+0200 (Central European Summer Time),1595580007211,11.229933333333333,main,15,compatible
1638,627,25,,correct,Graduated College,1595580681007,small,157,female,q,German,images/square_2x2.jpg,Fri Jul 24 2020 10:40:07 GMT+0200 (Central European Summer Time),1595580007211,11.229933333333333,main,16,compatible
1638,472,25,,correct,Graduated College,1595580681007,small,157,female,q,German,images/square_2x2.jpg,Fri Jul 24 2020 10:40:07 GMT+0200 (Central European Summer Time),1595580007211,11.229933333333333,main,17,compatible
1638,498,25,,correct,Graduated College,1595580681007,small,157,female,q,German,images/square_2x2.jpg,Fri Jul 24 2020 10:40:07 GMT+0200 (Central European Summer Time),1595580007211,11.229933333333333,main,18,compatible
1638,534,25,,correct,Graduated College,1595580681007,large,157,female,p,German,images/square_4x4.jpg,Fri Jul 24 2020 10:40:07 GMT+0200 (Central European Summer Time),1595580007211,11.229933333333333,main,19,compatible
1638,507,25,,correct,Graduated College,1595580681007,small,157,female,q,German,images/square_2x2.jpg,Fri Jul 24 2020 10:40:07 GMT+0200 (Central European Summer Time),1595580007211,11.229933333333333,main,20,compatible
1638,426,25,,correct,Graduated College,1595580681007,large,157,female,p,German,images/square_4x4.jpg,Fri Jul 24 2020 10:40:07 GMT+0200 (Central European Summer Time),1595580007211,11.229933333333333,main,21,compatible
1638,674,25,,correct,Graduated College,1595580681007,large,157,female,p,German,images/square_4x4.jpg,Fri Jul 24 2020 10:40:07 GMT+0200 (Central European Summer Time),1595580007211,11.229933333333333,main,22,compatible
1638,390,25,,correct,Graduated College,1595580681007,small,157,female,q,German,images/square_2x2.jpg,Fri Jul 24 2020 10:40:07 GMT+0200 (Central European Summer Time),1595580007211,11.229933333333333,main,23,compatible
1638,408,25,,correct,Graduated College,1595580681007,large,157,female,p,German,images/square_4x4.jpg,Fri Jul 24 2020 10:40:07 GMT+0200 (Central European Summer Time),1595580007211,11.229933333333333,main,24,compatible
1638,443,25,,correct,Graduated College,1595580681007,small,157,female,q,German,images/square_2x2.jpg,Fri Jul 24 2020 10:40:07 GMT+0200 (Central European Summer Time),1595580007211,11.229933333333333,main,25,compatible
1638,476,25,,correct,Graduated College,1595580681007,large,157,female,p,German,images/square_4x4.jpg,Fri Jul 24 2020 10:40:07 GMT+0200 (Central European Summer Time),1595580007211,11.229933333333333,main,26,compatible
1638,480,25,,correct,Graduated College,1595580681007,small,157,female,q,German,images/square_2x2.jpg,Fri Jul 24 2020 10:40:07 GMT+0200 (Central European Summer Time),1595580007211,11.229933333333333,main,27,compatible
1638,360,25,,correct,Graduated College,1595580681007,large,157,female,p,German,images/square_4x4.jpg,Fri Jul 24 2020 10:40:07 GMT+0200 (Central European Summer Time),1595580007211,11.229933333333333,main,28,compatible
1638,463,25,,correct,Graduated College,1595580681007,small,157,female,q,German,images/square_2x2.jpg,Fri Jul 24 2020 10:40:07 GMT+0200 (Central European Summer Time),1595580007211,11.229933333333333,main,29,compatible
1638,434,25,,correct,Graduated College,1595580681007,large,157,female,p,German,images/square_4x4.jpg,Fri Jul 24 2020 10:40:07 GMT+0200 (Central European Summer Time),1595580007211,11.229933333333333,main,30,compatible
1638,473,25,,correct,Graduated College,1595580681007,small,157,female,q,German,images/square_2x2.jpg,Fri Jul 24 2020 10:40:07 GMT+0200 (Central European Summer Time),1595580007211,11.229933333333333,main,31,compatible
1638,433,25,,correct,Graduated College,1595580681007,small,157,female,q,German,images/square_2x2.jpg,Fri Jul 24 2020 10:40:07 GMT+0200 (Central European Summer Time),1595580007211,11.229933333333333,main,32,compatible
1638,523,25,,correct,Graduated College,1595580681007,large,157,female,p,German,images/square_4x4.jpg,Fri Jul 24 2020 10:40:07 GMT+0200 (Central European Summer Time),1595580007211,11.229933333333333,main,33,compatible
1638,379,25,,correct,Graduated College,1595580681007,small,157,female,q,German,images/square_2x2.jpg,Fri Jul 24 2020 10:40:07 GMT+0200 (Central European Summer Time),1595580007211,11.229933333333333,main,34,compatible
1638,373,25,,correct,Graduated College,1595580681007,large,157,female,p,German,images/square_4x4.jpg,Fri Jul 24 2020 10:40:07 GMT+0200 (Central European Summer Time),1595580007211,11.229933333333333,main,35,compatible
1638,633,25,,correct,Graduated College,1595580681007,large,157,female,p,German,images/square_4x4.jpg,Fri Jul 24 2020 10:40:07 GMT+0200 (Central European Summer Time),1595580007211,11.229933333333333,main,36,compatible
1638,398,25,,correct,Graduated College,1595580681007,small,157,female,q,German,images/square_2x2.jpg,Fri Jul 24 2020 10:40:07 GMT+0200 (Central European Summer Time),1595580007211,11.229933333333333,main,37,compatible
1638,439,25,,correct,Graduated College,1595580681007,large,157,female,p,German,images/square_4x4.jpg,Fri Jul 24 2020 10:40:07 GMT+0200 (Central European Summer Time),1595580007211,11.229933333333333,main,38,compatible
1638,539,25,,correct,Graduated College,1595580681007,small,157,female,q,German,images/square_2x2.jpg,Fri Jul 24 2020 10:40:07 GMT+0200 (Central European Summer Time),1595580007211,11.229933333333333,main,39,compatible
1638,430,25,,correct,Graduated College,1595580681007,small,157,female,q,German,images/square_2x2.jpg,Fri Jul 24 2020 10:40:07 GMT+0200 (Central European Summer Time),1595580007211,11.229933333333333,main,40,compatible
1638,414,25,,correct,Graduated College,1595580681007,small,157,female,q,German,images/square_2x2.jpg,Fri Jul 24 2020 10:40:07 GMT+0200 (Central European Summer Time),1595580007211,11.229933333333333,main,41,compatible
1638,444,25,,correct,Graduated College,1595580681007,small,157,female,q,German,images/square_2x2.jpg,Fri Jul 24 2020 10:40:07 GMT+0200 (Central European Summer Time),1595580007211,11.229933333333333,main,42,compatible
1638,385,25,,correct,Graduated College,1595580681007,large,157,female,p,German,images/square_4x4.jpg,Fri Jul 24 2020 10:40:07 GMT+0200 (Central European Summer Time),1595580007211,11.229933333333333,main,43,compatible
1638,571,25,,correct,Graduated College,1595580681007,large,157,female,p,German,images/square_4x4.jpg,Fri Jul 24 2020 10:40:07 GMT+0200 (Central European Summer Time),1595580007211,11.229933333333333,main,44,compatible
1638,419,25,,correct,Graduated College,1595580681007,large,157,female,p,German,images/square_4x4.jpg,Fri Jul 24 2020 10:40:07 GMT+0200 (Central European Summer Time),1595580007211,11.229933333333333,main,45,compatible
1638,554,25,,correct,Graduated College,1595580681007,large,157,female,p,German,images/square_4x4.jpg,Fri Jul 24 2020 10:40:07 GMT+0200 (Central European Summer Time),1595580007211,11.229933333333333,main,46,compatible
1638,391,25,,correct,Graduated College,1595580681007,small,157,female,q,German,images/square_2x2.jpg,Fri Jul 24 2020 10:40:07 GMT+0200 (Central European Summer Time),1595580007211,11.229933333333333,main,47,compatible
1638,413,25,,correct,Graduated College,1595580681007,small,157,female,q,German,images/square_2x2.jpg,Fri Jul 24 2020 10:40:07 GMT+0200 (Central European Summer Time),1595580007211,11.229933333333333,main,48,compatible
1638,369,25,,correct,Graduated College,1595580681007,large,157,female,p,German,images/square_4x4.jpg,Fri Jul 24 2020 10:40:07 GMT+0200 (Central European Summer Time),1595580007211,11.229933333333333,main,49,compatible
1638,409,25,,correct,Graduated College,1595580681007,small,157,female,q,German,images/square_2x2.jpg,Fri Jul 24 2020 10:40:07 GMT+0200 (Central European Summer Time),1595580007211,11.229933333333333,main,50,compatible
1638,400,25,,correct,Graduated College,1595580681007,small,157,female,q,German,images/square_2x2.jpg,Fri Jul 24 2020 10:40:07 GMT+0200 (Central European Summer Time),1595580007211,11.229933333333333,main,51,compatible
1638,395,25,,correct,Graduated College,1595580681007,large,157,female,p,German,images/square_4x4.jpg,Fri Jul 24 2020 10:40:07 GMT+0200 (Central European Summer Time),1595580007211,11.229933333333333,main,52,compatible
1638,507,25,,correct,Graduated College,1595580681007,small,157,female,q,German,images/square_2x2.jpg,Fri Jul 24 2020 10:40:07 GMT+0200 (Central European Summer Time),1595580007211,11.229933333333333,main,53,compatible
1638,386,25,,correct,Graduated College,1595580681007,large,157,female,p,German,images/square_4x4.jpg,Fri Jul 24 2020 10:40:07 GMT+0200 (Central European Summer Time),1595580007211,11.229933333333333,main,54,compatible
1638,379,25,,correct,Graduated College,1595580681007,small,157,female,q,German,images/square_2x2.jpg,Fri Jul 24 2020 10:40:07 GMT+0200 (Central European Summer Time),1595580007211,11.229933333333333,main,55,compatible
1638,322,25,,correct,Graduated College,1595580681007,large,157,female,p,German,images/square_4x4.jpg,Fri Jul 24 2020 10:40:07 GMT+0200 (Central European Summer Time),1595580007211,11.229933333333333,main,56,compatible
1638,562,25,,correct,Graduated College,1595580681007,small,157,female,q,German,images/square_2x2.jpg,Fri Jul 24 2020 10:40:07 GMT+0200 (Central European Summer Time),1595580007211,11.229933333333333,main,57,compatible
1638,528,25,,correct,Graduated College,1595580681007,large,157,female,p,German,images/square_4x4.jpg,Fri Jul 24 2020 10:40:07 GMT+0200 (Central European Summer Time),1595580007211,11.229933333333333,main,58,compatible
1638,414,25,,correct,Graduated College,1595580681007,small,157,female,q,German,images/square_2x2.jpg,Fri Jul 24 2020 10:40:07 GMT+0200 (Central European Summer Time),1595580007211,11.229933333333333,main,59,compatible
1638,338,25,,correct,Graduated College,1595580681007,large,157,female,p,German,images/square_4x4.jpg,Fri Jul 24 2020 10:40:07 GMT+0200 (Central European Summer Time),1595580007211,11.229933333333333,main,60,compatible
1638,825,25,,correct,Graduated College,1595580681007,large,157,female,q,German,images/square_4x4.jpg,Fri Jul 24 2020 10:40:07 GMT+0200 (Central European Summer Time),1595580007211,11.229933333333333,practice,1,incompatible
1638,420,25,,correct,Graduated College,1595580681007,large,157,female,q,German,images/square_4x4.jpg,Fri Jul 24 2020 10:40:07 GMT+0200 (Central European Summer Time),1595580007211,11.229933333333333,practice,2,incompatible
1638,366,25,,correct,Graduated College,1595580681007,small,157,female,p,German,images/square_2x2.jpg,Fri Jul 24 2020 10:40:07 GMT+0200 (Central European Summer Time),1595580007211,11.229933333333333,practice,3,incompatible
1638,500,25,,correct,Graduated College,1595580681007,small,157,female,p,German,images/square_2x2.jpg,Fri Jul 24 2020 10:40:07 GMT+0200 (Central European Summer Time),1595580007211,11.229933333333333,practice,4,incompatible
1638,516,25,,correct,Graduated College,1595580681007,small,157,female,p,German,images/square_2x2.jpg,Fri Jul 24 2020 10:40:07 GMT+0200 (Central European Summer Time),1595580007211,11.229933333333333,practice,5,incompatible
1638,381,25,,correct,Graduated College,1595580681007,large,157,female,q,German,images/square_4x4.jpg,Fri Jul 24 2020 10:40:07 GMT+0200 (Central European Summer Time),1595580007211,11.229933333333333,practice,6,incompatible
1638,371,25,,correct,Graduated College,1595580681007,large,157,female,q,German,images/square_4x4.jpg,Fri Jul 24 2020 10:40:07 GMT+0200 (Central European Summer Time),1595580007211,11.229933333333333,practice,7,incompatible
1638,366,25,,correct,Graduated College,1595580681007,large,157,female,q,German,images/square_4x4.jpg,Fri Jul 24 2020 10:40:07 GMT+0200 (Central European Summer Time),1595580007211,11.229933333333333,practice,8,incompatible
1638,340,25,,correct,Graduated College,1595580681007,large,157,female,q,German,images/square_4x4.jpg,Fri Jul 24 2020 10:40:07 GMT+0200 (Central European Summer Time),1595580007211,11.229933333333333,practice,9,incompatible
1638,403,25,,correct,Graduated College,1595580681007,large,157,female,q,German,images/square_4x4.jpg,Fri Jul 24 2020 10:40:07 GMT+0200 (Central European Summer Time),1595580007211,11.229933333333333,practice,10,incompatible
1638,408,25,,correct,Graduated College,1595580681007,large,157,female,q,German,images/square_4x4.jpg,Fri Jul 24 2020 10:40:07 GMT+0200 (Central European Summer Time),1595580007211,11.229933333333333,practice,11,incompatible
1638,424,25,,correct,Graduated College,1595580681007,large,157,female,q,German,images/square_4x4.jpg,Fri Jul 24 2020 10:40:07 GMT+0200 (Central European Summer Time),1595580007211,11.229933333333333,practice,12,incompatible
1638,489,25,,correct,Graduated College,1595580681007,small,157,female,p,German,images/square_2x2.jpg,Fri Jul 24 2020 10:40:07 GMT+0200 (Central European Summer Time),1595580007211,11.229933333333333,practice,13,incompatible
1638,356,25,,correct,Graduated College,1595580681007,small,157,female,p,German,images/square_2x2.jpg,Fri Jul 24 2020 10:40:07 GMT+0200 (Central European Summer Time),1595580007211,11.229933333333333,practice,14,incompatible
1638,393,25,,correct,Graduated College,1595580681007,small,157,female,p,German,images/square_2x2.jpg,Fri Jul 24 2020 10:40:07 GMT+0200 (Central European Summer Time),1595580007211,11.229933333333333,practice,15,incompatible
1638,323,25,,correct,Graduated College,1595580681007,large,157,female,q,German,images/square_4x4.jpg,Fri Jul 24 2020 10:40:07 GMT+0200 (Central European Summer Time),1595580007211,11.229933333333333,practice,16,incompatible
1638,408,25,,correct,Graduated College,1595580681007,large,157,female,q,German,images/square_4x4.jpg,Fri Jul 24 2020 10:40:07 GMT+0200 (Central European Summer Time),1595580007211,11.229933333333333,practice,17,incompatible
1638,407,25,,correct,Graduated College,1595580681007,large,157,female,q,German,images/square_4x4.jpg,Fri Jul 24 2020 10:40:07 GMT+0200 (Central European Summer Time),1595580007211,11.229933333333333,practice,18,incompatible
1638,512,25,,correct,Graduated College,1595580681007,small,157,female,p,German,images/square_2x2.jpg,Fri Jul 24 2020 10:40:07 GMT+0200 (Central European Summer Time),1595580007211,11.229933333333333,practice,19,incompatible
1638,457,25,,correct,Graduated College,1595580681007,small,157,female,p,German,images/square_2x2.jpg,Fri Jul 24 2020 10:40:07 GMT+0200 (Central European Summer Time),1595580007211,11.229933333333333,practice,20,incompatible
1638,5607,25,,timeout,Graduated College,1595580681007,small,157,female,p,German,images/square_2x2.jpg,Fri Jul 24 2020 10:40:07 GMT+0200 (Central European Summer Time),1595580007211,11.229933333333333,main,1,incompatible
1638,762,25,,correct,Graduated College,1595580681007,large,157,female,q,German,images/square_4x4.jpg,Fri Jul 24 2020 10:40:07 GMT+0200 (Central European Summer Time),1595580007211,11.229933333333333,main,2,incompatible
1638,716,25,,correct,Graduated College,1595580681007,large,157,female,q,German,images/square_4x4.jpg,Fri Jul 24 2020 10:40:07 GMT+0200 (Central European Summer Time),1595580007211,11.229933333333333,main,3,incompatible
1638,530,25,,correct,Graduated College,1595580681007,small,157,female,p,German,images/square_2x2.jpg,Fri Jul 24 2020 10:40:07 GMT+0200 (Central European Summer Time),1595580007211,11.229933333333333,main,4,incompatible
1638,455,25,,correct,Graduated College,1595580681007,large,157,female,q,German,images/square_4x4.jpg,Fri Jul 24 2020 10:40:07 GMT+0200 (Central European Summer Time),1595580007211,11.229933333333333,main,5,incompatible
1638,425,25,,correct,Graduated College,1595580681007,large,157,female,q,German,images/square_4x4.jpg,Fri Jul 24 2020 10:40:07 GMT+0200 (Central European Summer Time),1595580007211,11.229933333333333,main,6,incompatible
1638,466,25,,correct,Graduated College,1595580681007,small,157,female,p,German,images/square_2x2.jpg,Fri Jul 24 2020 10:40:07 GMT+0200 (Central European Summer Time),1595580007211,11.229933333333333,main,7,incompatible
1638,411,25,,correct,Graduated College,1595580681007,small,157,female,p,German,images/square_2x2.jpg,Fri Jul 24 2020 10:40:07 GMT+0200 (Central European Summer Time),1595580007211,11.229933333333333,main,8,incompatible
1638,419,25,,correct,Graduated College,1595580681007,small,157,female,p,German,images/square_2x2.jpg,Fri Jul 24 2020 10:40:07 GMT+0200 (Central European Summer Time),1595580007211,11.229933333333333,main,9,incompatible
1638,531,25,,correct,Graduated College,1595580681007,large,157,female,q,German,images/square_4x4.jpg,Fri Jul 24 2020 10:40:07 GMT+0200 (Central European Summer Time),1595580007211,11.229933333333333,main,10,incompatible
1638,380,25,,correct,Graduated College,1595580681007,small,157,female,p,German,images/square_2x2.jpg,Fri Jul 24 2020 10:40:07 GMT+0200 (Central European Summer Time),1595580007211,11.229933333333333,main,11,incompatible
1638,409,25,,correct,Graduated College,1595580681007,small,157,female,p,German,images/square_2x2.jpg,Fri Jul 24 2020 10:40:07 GMT+0200 (Central European Summer Time),1595580007211,11.229933333333333,main,12,incompatible
1638,401,25,,correct,Graduated College,1595580681007,small,157,female,p,German,images/square_2x2.jpg,Fri Jul 24 2020 10:40:07 GMT+0200 (Central European Summer Time),1595580007211,11.229933333333333,main,13,incompatible
1638,530,25,,correct,Graduated College,1595580681007,large,157,female,q,German,images/square_4x4.jpg,Fri Jul 24 2020 10:40:07 GMT+0200 (Central European Summer Time),1595580007211,11.229933333333333,main,14,incompatible
1638,796,25,,correct,Graduated College,1595580681007,large,157,female,q,German,images/square_4x4.jpg,Fri Jul 24 2020 10:40:07 GMT+0200 (Central European Summer Time),1595580007211,11.229933333333333,main,15,incompatible
1638,501,25,,correct,Graduated College,1595580681007,large,157,female,q,German,images/square_4x4.jpg,Fri Jul 24 2020 10:40:07 GMT+0200 (Central European Summer Time),1595580007211,11.229933333333333,main,16,incompatible
1638,444,25,,correct,Graduated College,1595580681007,small,157,female,p,German,images/square_2x2.jpg,Fri Jul 24 2020 10:40:07 GMT+0200 (Central European Summer Time),1595580007211,11.229933333333333,main,17,incompatible
1638,383,25,,correct,Graduated College,1595580681007,large,157,female,q,German,images/square_4x4.jpg,Fri Jul 24 2020 10:40:07 GMT+0200 (Central European Summer Time),1595580007211,11.229933333333333,main,18,incompatible
1638,397,25,,correct,Graduated College,1595580681007,large,157,female,q,German,images/square_4x4.jpg,Fri Jul 24 2020 10:40:07 GMT+0200 (Central European Summer Time),1595580007211,11.229933333333333,main,19,incompatible
1638,511,25,,correct,Graduated College,1595580681007,small,157,female,p,German,images/square_2x2.jpg,Fri Jul 24 2020 10:40:07 GMT+0200 (Central European Summer Time),1595580007211,11.229933333333333,main,20,incompatible
1638,496,25,,correct,Graduated College,1595580681007,small,157,female,p,German,images/square_2x2.jpg,Fri Jul 24 2020 10:40:07 GMT+0200 (Central European Summer Time),1595580007211,11.229933333333333,main,21,incompatible
1638,328,25,,correct,Graduated College,1595580681007,large,157,female,q,German,images/square_4x4.jpg,Fri Jul 24 2020 10:40:07 GMT+0200 (Central European Summer Time),1595580007211,11.229933333333333,main,22,incompatible
1638,437,25,,correct,Graduated College,1595580681007,small,157,female,p,German,images/square_2x2.jpg,Fri Jul 24 2020 10:40:07 GMT+0200 (Central European Summer Time),1595580007211,11.229933333333333,main,23,incompatible
1638,413,25,,correct,Graduated College,1595580681007,small,157,female,p,German,images/square_2x2.jpg,Fri Jul 24 2020 10:40:07 GMT+0200 (Central European Summer Time),1595580007211,11.229933333333333,main,24,incompatible
1638,403,25,,correct,Graduated College,1595580681007,small,157,female,p,German,images/square_2x2.jpg,Fri Jul 24 2020 10:40:07 GMT+0200 (Central European Summer Time),1595580007211,11.229933333333333,main,25,incompatible
1638,394,25,,correct,Graduated College,1595580681007,small,157,female,p,German,images/square_2x2.jpg,Fri Jul 24 2020 10:40:07 GMT+0200 (Central European Summer Time),1595580007211,11.229933333333333,main,26,incompatible
1638,411,25,,correct,Graduated College,1595580681007,large,157,female,q,German,images/square_4x4.jpg,Fri Jul 24 2020 10:40:07 GMT+0200 (Central European Summer Time),1595580007211,11.229933333333333,main,27,incompatible
1638,387,25,,correct,Graduated College,1595580681007,large,157,female,q,German,images/square_4x4.jpg,Fri Jul 24 2020 10:40:07 GMT+0200 (Central European Summer Time),1595580007211,11.229933333333333,main,28,incompatible
1638,493,25,,correct,Graduated College,1595580681007,small,157,female,p,German,images/square_2x2.jpg,Fri Jul 24 2020 10:40:07 GMT+0200 (Central European Summer Time),1595580007211,11.229933333333333,main,29,incompatible
1638,429,25,,correct,Graduated College,1595580681007,small,157,female,p,German,images/square_2x2.jpg,Fri Jul 24 2020 10:40:07 GMT+0200 (Central European Summer Time),1595580007211,11.229933333333333,main,30,incompatible
1638,536,25,,correct,Graduated College,1595580681007,large,157,female,q,German,images/square_4x4.jpg,Fri Jul 24 2020 10:40:07 GMT+0200 (Central European Summer Time),1595580007211,11.229933333333333,main,31,incompatible
1638,374,25,,correct,Graduated College,1595580681007,large,157,female,q,German,images/square_4x4.jpg,Fri Jul 24 2020 10:40:07 GMT+0200 (Central European Summer Time),1595580007211,11.229933333333333,main,32,incompatible
1638,409,25,,correct,Graduated College,1595580681007,large,157,female,q,German,images/square_4x4.jpg,Fri Jul 24 2020 10:40:07 GMT+0200 (Central European Summer Time),1595580007211,11.229933333333333,main,33,incompatible
1638,424,25,,correct,Graduated College,1595580681007,large,157,female,q,German,images/square_4x4.jpg,Fri Jul 24 2020 10:40:07 GMT+0200 (Central European Summer Time),1595580007211,11.229933333333333,main,34,incompatible
1638,360,25,,correct,Graduated College,1595580681007,large,157,female,q,German,images/square_4x4.jpg,Fri Jul 24 2020 10:40:07 GMT+0200 (Central European Summer Time),1595580007211,11.229933333333333,main,35,incompatible
1638,395,25,,correct,Graduated College,1595580681007,small,157,female,p,German,images/square_2x2.jpg,Fri Jul 24 2020 10:40:07 GMT+0200 (Central European Summer Time),1595580007211,11.229933333333333,main,36,incompatible
1638,783,25,,correct,Graduated College,1595580681007,small,157,female,p,German,images/square_2x2.jpg,Fri Jul 24 2020 10:40:07 GMT+0200 (Central European Summer Time),1595580007211,11.229933333333333,main,37,incompatible
1638,390,25,,correct,Graduated College,1595580681007,large,157,female,q,German,images/square_4x4.jpg,Fri Jul 24 2020 10:40:07 GMT+0200 (Central European Summer Time),1595580007211,11.229933333333333,main,38,incompatible
1638,541,25,,correct,Graduated College,1595580681007,small,157,female,p,German,images/square_2x2.jpg,Fri Jul 24 2020 10:40:07 GMT+0200 (Central European Summer Time),1595580007211,11.229933333333333,main,39,incompatible
1638,363,25,,correct,Graduated College,1595580681007,small,157,female,p,German,images/square_2x2.jpg,Fri Jul 24 2020 10:40:07 GMT+0200 (Central European Summer Time),1595580007211,11.229933333333333,main,40,incompatible
1638,341,25,,correct,Graduated College,1595580681007,large,157,female,q,German,images/square_4x4.jpg,Fri Jul 24 2020 10:40:07 GMT+0200 (Central European Summer Time),1595580007211,11.229933333333333,main,41,incompatible
1638,323,25,,correct,Graduated College,1595580681007,large,157,female,q,German,images/square_4x4.jpg,Fri Jul 24 2020 10:40:07 GMT+0200 (Central European Summer Time),1595580007211,11.229933333333333,main,42,incompatible
1638,406,25,,correct,Graduated College,1595580681007,large,157,female,q,German,images/square_4x4.jpg,Fri Jul 24 2020 10:40:07 GMT+0200 (Central European Summer Time),1595580007211,11.229933333333333,main,43,incompatible
1638,451,25,,correct,Graduated College,1595580681007,small,157,female,p,German,images/square_2x2.jpg,Fri Jul 24 2020 10:40:07 GMT+0200 (Central European Summer Time),1595580007211,11.229933333333333,main,44,incompatible
1638,373,25,,correct,Graduated College,1595580681007,large,157,female,q,German,images/square_4x4.jpg,Fri Jul 24 2020 10:40:07 GMT+0200 (Central European Summer Time),1595580007211,11.229933333333333,main,45,incompatible
1638,500,25,,correct,Graduated College,1595580681007,large,157,female,q,German,images/square_4x4.jpg,Fri Jul 24 2020 10:40:07 GMT+0200 (Central European Summer Time),1595580007211,11.229933333333333,main,46,incompatible
1638,464,25,,correct,Graduated College,1595580681007,small,157,female,p,German,images/square_2x2.jpg,Fri Jul 24 2020 10:40:07 GMT+0200 (Central European Summer Time),1595580007211,11.229933333333333,main,47,incompatible
1638,361,25,,correct,Graduated College,1595580681007,small,157,female,p,German,images/square_2x2.jpg,Fri Jul 24 2020 10:40:07 GMT+0200 (Central European Summer Time),1595580007211,11.229933333333333,main,48,incompatible
1638,428,25,,correct,Graduated College,1595580681007,large,157,female,q,German,images/square_4x4.jpg,Fri Jul 24 2020 10:40:07 GMT+0200 (Central European Summer Time),1595580007211,11.229933333333333,main,49,incompatible
1638,517,25,,correct,Graduated College,1595580681007,small,157,female,p,German,images/square_2x2.jpg,Fri Jul 24 2020 10:40:07 GMT+0200 (Central European Summer Time),1595580007211,11.229933333333333,main,50,incompatible
1638,377,25,,correct,Graduated College,1595580681007,small,157,female,p,German,images/square_2x2.jpg,Fri Jul 24 2020 10:40:07 GMT+0200 (Central European Summer Time),1595580007211,11.229933333333333,main,51,incompatible
1638,432,25,,correct,Graduated College,1595580681007,small,157,female,p,German,images/square_2x2.jpg,Fri Jul 24 2020 10:40:07 GMT+0200 (Central European Summer Time),1595580007211,11.229933333333333,main,52,incompatible
1638,491,25,,correct,Graduated College,1595580681007,large,157,female,q,German,images/square_4x4.jpg,Fri Jul 24 2020 10:40:07 GMT+0200 (Central European Summer Time),1595580007211,11.229933333333333,main,53,incompatible
1638,607,25,,correct,Graduated College,1595580681007,small,157,female,p,German,images/square_2x2.jpg,Fri Jul 24 2020 10:40:07 GMT+0200 (Central European Summer Time),1595580007211,11.229933333333333,main,54,incompatible
1638,407,25,,correct,Graduated College,1595580681007,large,157,female,q,German,images/square_4x4.jpg,Fri Jul 24 2020 10:40:07 GMT+0200 (Central European Summer Time),1595580007211,11.229933333333333,main,55,incompatible
1638,426,25,,correct,Graduated College,1595580681007,small,157,female,p,German,images/square_2x2.jpg,Fri Jul 24 2020 10:40:07 GMT+0200 (Central European Summer Time),1595580007211,11.229933333333333,main,56,incompatible
1638,439,25,,correct,Graduated College,1595580681007,large,157,female,q,German,images/square_4x4.jpg,Fri Jul 24 2020 10:40:07 GMT+0200 (Central European Summer Time),1595580007211,11.229933333333333,main,57,incompatible
1638,477,25,,correct,Graduated College,1595580681007,large,157,female,q,German,images/square_4x4.jpg,Fri Jul 24 2020 10:40:07 GMT+0200 (Central European Summer Time),1595580007211,11.229933333333333,main,58,incompatible
1638,350,25,,incorrect,Graduated College,1595580681007,small,157,female,q,German,images/square_2x2.jpg,Fri Jul 24 2020 10:40:07 GMT+0200 (Central European Summer Time),1595580007211,11.229933333333333,main,59,incompatible
1638,524,25,,correct,Graduated College,1595580681007,large,157,female,q,German,images/square_4x4.jpg,Fri Jul 24 2020 10:40:07 GMT+0200 (Central European Summer Time),1595580007211,11.229933333333333,main,60,incompatible
1592,15280,28,,timeout,Higher Degree,1595427786179,large,157,female,p,German,images/square_4x4.jpg,Wed Jul 22 2020 16:12:16 GMT+0200 (Mitteleuropäische Sommerzeit),1595427136056,10.835383333333333,practice,1,incompatible
1592,788,28,,correct,Higher Degree,1595427786179,small,157,female,p,German,images/square_2x2.jpg,Wed Jul 22 2020 16:12:16 GMT+0200 (Mitteleuropäische Sommerzeit),1595427136056,10.835383333333333,practice,2,incompatible
1592,608,28,,correct,Higher Degree,1595427786179,small,157,female,p,German,images/square_2x2.jpg,Wed Jul 22 2020 16:12:16 GMT+0200 (Mitteleuropäische Sommerzeit),1595427136056,10.835383333333333,practice,3,incompatible
1592,544,28,,correct,Higher Degree,1595427786179,large,157,female,q,German,images/square_4x4.jpg,Wed Jul 22 2020 16:12:16 GMT+0200 (Mitteleuropäische Sommerzeit),1595427136056,10.835383333333333,practice,4,incompatible
1592,527,28,,correct,Higher Degree,1595427786179,large,157,female,q,German,images/square_4x4.jpg,Wed Jul 22 2020 16:12:16 GMT+0200 (Mitteleuropäische Sommerzeit),1595427136056,10.835383333333333,practice,5,incompatible
1592,573,28,,correct,Higher Degree,1595427786179,large,157,female,q,German,images/square_4x4.jpg,Wed Jul 22 2020 16:12:16 GMT+0200 (Mitteleuropäische Sommerzeit),1595427136056,10.835383333333333,practice,6,incompatible
1592,388,28,,correct,Higher Degree,1595427786179,large,157,female,q,German,images/square_4x4.jpg,Wed Jul 22 2020 16:12:16 GMT+0200 (Mitteleuropäische Sommerzeit),1595427136056,10.835383333333333,practice,7,incompatible
1592,505,28,,correct,Higher Degree,1595427786179,small,157,female,p,German,images/square_2x2.jpg,Wed Jul 22 2020 16:12:16 GMT+0200 (Mitteleuropäische Sommerzeit),1595427136056,10.835383333333333,practice,8,incompatible
1592,436,28,,correct,Higher Degree,1595427786179,small,157,female,p,German,images/square_2x2.jpg,Wed Jul 22 2020 16:12:16 GMT+0200 (Mitteleuropäische Sommerzeit),1595427136056,10.835383333333333,practice,9,incompatible
1592,530,28,,correct,Higher Degree,1595427786179,large,157,female,q,German,images/square_4x4.jpg,Wed Jul 22 2020 16:12:16 GMT+0200 (Mitteleuropäische Sommerzeit),1595427136056,10.835383333333333,practice,10,incompatible
1592,535,28,,correct,Higher Degree,1595427786179,small,157,female,p,German,images/square_2x2.jpg,Wed Jul 22 2020 16:12:16 GMT+0200 (Mitteleuropäische Sommerzeit),1595427136056,10.835383333333333,main,1,incompatible
1592,604,28,,correct,Higher Degree,1595427786179,large,157,female,q,German,images/square_4x4.jpg,Wed Jul 22 2020 16:12:16 GMT+0200 (Mitteleuropäische Sommerzeit),1595427136056,10.835383333333333,main,2,incompatible
1592,558,28,,correct,Higher Degree,1595427786179,small,157,female,p,German,images/square_2x2.jpg,Wed Jul 22 2020 16:12:16 GMT+0200 (Mitteleuropäische Sommerzeit),1595427136056,10.835383333333333,main,3,incompatible
1592,570,28,,correct,Higher Degree,1595427786179,large,157,female,q,German,images/square_4x4.jpg,Wed Jul 22 2020 16:12:16 GMT+0200 (Mitteleuropäische Sommerzeit),1595427136056,10.835383333333333,main,4,incompatible
1592,598,28,,correct,Higher Degree,1595427786179,large,157,female,q,German,images/square_4x4.jpg,Wed Jul 22 2020 16:12:16 GMT+0200 (Mitteleuropäische Sommerzeit),1595427136056,10.835383333333333,main,5,incompatible
1592,573,28,,correct,Higher Degree,1595427786179,large,157,female,q,German,images/square_4x4.jpg,Wed Jul 22 2020 16:12:16 GMT+0200 (Mitteleuropäische Sommerzeit),1595427136056,10.835383333333333,main,6,incompatible
1592,512,28,,correct,Higher Degree,1595427786179,small,157,female,p,German,images/square_2x2.jpg,Wed Jul 22 2020 16:12:16 GMT+0200 (Mitteleuropäische Sommerzeit),1595427136056,10.835383333333333,main,7,incompatible
1592,540,28,,correct,Higher Degree,1595427786179,large,157,female,q,German,images/square_4x4.jpg,Wed Jul 22 2020 16:12:16 GMT+0200 (Mitteleuropäische Sommerzeit),1595427136056,10.835383333333333,main,8,incompatible
1592,527,28,,correct,Higher Degree,1595427786179,small,157,female,p,German,images/square_2x2.jpg,Wed Jul 22 2020 16:12:16 GMT+0200 (Mitteleuropäische Sommerzeit),1595427136056,10.835383333333333,main,9,incompatible
1592,567,28,,correct,Higher Degree,1595427786179,small,157,female,p,German,images/square_2x2.jpg,Wed Jul 22 2020 16:12:16 GMT+0200 (Mitteleuropäische Sommerzeit),1595427136056,10.835383333333333,main,10,incompatible
1592,419,28,,correct,Higher Degree,1595427786179,small,157,female,p,German,images/square_2x2.jpg,Wed Jul 22 2020 16:12:16 GMT+0200 (Mitteleuropäische Sommerzeit),1595427136056,10.835383333333333,main,11,incompatible
