submission_id,RT,age,comments,correctness,education,endTime,expected,experiment_id,gender,key_pressed,languages,picture,startDate,startTime,timeSpent,trial_number,trial_type
1404,4133,22,,incorrect,,1594806350027,small,157,female,p,german,images/square_2x2.jpg,Wed Jul 15 2020 11:33:03 GMT+0200 (Mitteleuropäische Sommerzeit),1594805583024,12.783383333333333,1,compatible
1404,3619,22,,correct,,1594806350027,large,157,female,p,german,images/square_4x4.jpg,Wed Jul 15 2020 11:33:03 GMT+0200 (Mitteleuropäische Sommerzeit),1594805583024,12.783383333333333,2,compatible
1404,3037,22,,correct,,1594806350027,large,157,female,p,german,images/square_4x4.jpg,Wed Jul 15 2020 11:33:03 GMT+0200 (Mitteleuropäische Sommerzeit),1594805583024,12.783383333333333,3,compatible
1404,3253,22,,correct,,1594806350027,small,157,female,q,german,images/square_2x2.jpg,Wed Jul 15 2020 11:33:03 GMT+0200 (Mitteleuropäische Sommerzeit),1594805583024,12.783383333333333,4,compatible
1404,3054,22,,correct,,1594806350027,small,157,female,q,german,images/square_2x2.jpg,Wed Jul 15 2020 11:33:03 GMT+0200 (Mitteleuropäische Sommerzeit),1594805583024,12.783383333333333,5,compatible
1404,3170,22,,correct,,1594806350027,small,157,female,q,german,images/square_2x2.jpg,Wed Jul 15 2020 11:33:03 GMT+0200 (Mitteleuropäische Sommerzeit),1594805583024,12.783383333333333,6,compatible
1404,3128,22,,correct,,1594806350027,small,157,female,q,german,images/square_2x2.jpg,Wed Jul 15 2020 11:33:03 GMT+0200 (Mitteleuropäische Sommerzeit),1594805583024,12.783383333333333,7,compatible
1404,3166,22,,correct,,1594806350027,small,157,female,q,german,images/square_2x2.jpg,Wed Jul 15 2020 11:33:03 GMT+0200 (Mitteleuropäische Sommerzeit),1594805583024,12.783383333333333,8,compatible
1404,3022,22,,correct,,1594806350027,small,157,female,q,german,images/square_2x2.jpg,Wed Jul 15 2020 11:33:03 GMT+0200 (Mitteleuropäische Sommerzeit),1594805583024,12.783383333333333,9,compatible
1404,3161,22,,correct,,1594806350027,small,157,female,q,german,images/square_2x2.jpg,Wed Jul 15 2020 11:33:03 GMT+0200 (Mitteleuropäische Sommerzeit),1594805583024,12.783383333333333,10,compatible
1404,3065,22,,correct,,1594806350027,small,157,female,q,german,images/square_2x2.jpg,Wed Jul 15 2020 11:33:03 GMT+0200 (Mitteleuropäische Sommerzeit),1594805583024,12.783383333333333,1,compatible
1404,2916,22,,correct,,1594806350027,large,157,female,p,german,images/square_4x4.jpg,Wed Jul 15 2020 11:33:03 GMT+0200 (Mitteleuropäische Sommerzeit),1594805583024,12.783383333333333,2,compatible
1404,3026,22,,correct,,1594806350027,small,157,female,q,german,images/square_2x2.jpg,Wed Jul 15 2020 11:33:03 GMT+0200 (Mitteleuropäische Sommerzeit),1594805583024,12.783383333333333,3,compatible
1404,3033,22,,correct,,1594806350027,large,157,female,p,german,images/square_4x4.jpg,Wed Jul 15 2020 11:33:03 GMT+0200 (Mitteleuropäische Sommerzeit),1594805583024,12.783383333333333,4,compatible
1404,3184,22,,correct,,1594806350027,small,157,female,q,german,images/square_2x2.jpg,Wed Jul 15 2020 11:33:03 GMT+0200 (Mitteleuropäische Sommerzeit),1594805583024,12.783383333333333,5,compatible
1404,2923,22,,correct,,1594806350027,large,157,female,p,german,images/square_4x4.jpg,Wed Jul 15 2020 11:33:03 GMT+0200 (Mitteleuropäische Sommerzeit),1594805583024,12.783383333333333,6,compatible
1404,3156,22,,correct,,1594806350027,small,157,female,q,german,images/square_2x2.jpg,Wed Jul 15 2020 11:33:03 GMT+0200 (Mitteleuropäische Sommerzeit),1594805583024,12.783383333333333,7,compatible
1404,3021,22,,correct,,1594806350027,small,157,female,q,german,images/square_2x2.jpg,Wed Jul 15 2020 11:33:03 GMT+0200 (Mitteleuropäische Sommerzeit),1594805583024,12.783383333333333,8,compatible
1404,2952,22,,correct,,1594806350027,large,157,female,p,german,images/square_4x4.jpg,Wed Jul 15 2020 11:33:03 GMT+0200 (Mitteleuropäische Sommerzeit),1594805583024,12.783383333333333,9,compatible
1404,3010,22,,correct,,1594806350027,large,157,female,p,german,images/square_4x4.jpg,Wed Jul 15 2020 11:33:03 GMT+0200 (Mitteleuropäische Sommerzeit),1594805583024,12.783383333333333,10,compatible
1404,3037,22,,correct,,1594806350027,large,157,female,p,german,images/square_4x4.jpg,Wed Jul 15 2020 11:33:03 GMT+0200 (Mitteleuropäische Sommerzeit),1594805583024,12.783383333333333,11,compatible
1404,3003,22,,correct,,1594806350027,large,157,female,p,german,images/square_4x4.jpg,Wed Jul 15 2020 11:33:03 GMT+0200 (Mitteleuropäische Sommerzeit),1594805583024,12.783383333333333,12,compatible
1404,3002,22,,correct,,1594806350027,small,157,female,q,german,images/square_2x2.jpg,Wed Jul 15 2020 11:33:03 GMT+0200 (Mitteleuropäische Sommerzeit),1594805583024,12.783383333333333,13,compatible
1404,3020,22,,correct,,1594806350027,small,157,female,q,german,images/square_2x2.jpg,Wed Jul 15 2020 11:33:03 GMT+0200 (Mitteleuropäische Sommerzeit),1594805583024,12.783383333333333,14,compatible
1404,3049,22,,correct,,1594806350027,small,157,female,q,german,images/square_2x2.jpg,Wed Jul 15 2020 11:33:03 GMT+0200 (Mitteleuropäische Sommerzeit),1594805583024,12.783383333333333,15,compatible
1404,2966,22,,correct,,1594806350027,large,157,female,p,german,images/square_4x4.jpg,Wed Jul 15 2020 11:33:03 GMT+0200 (Mitteleuropäische Sommerzeit),1594805583024,12.783383333333333,16,compatible
1404,3032,22,,correct,,1594806350027,small,157,female,q,german,images/square_2x2.jpg,Wed Jul 15 2020 11:33:03 GMT+0200 (Mitteleuropäische Sommerzeit),1594805583024,12.783383333333333,17,compatible
1404,3041,22,,correct,,1594806350027,small,157,female,q,german,images/square_2x2.jpg,Wed Jul 15 2020 11:33:03 GMT+0200 (Mitteleuropäische Sommerzeit),1594805583024,12.783383333333333,18,compatible
1404,2945,22,,correct,,1594806350027,small,157,female,q,german,images/square_2x2.jpg,Wed Jul 15 2020 11:33:03 GMT+0200 (Mitteleuropäische Sommerzeit),1594805583024,12.783383333333333,19,compatible
1404,2972,22,,correct,,1594806350027,large,157,female,p,german,images/square_4x4.jpg,Wed Jul 15 2020 11:33:03 GMT+0200 (Mitteleuropäische Sommerzeit),1594805583024,12.783383333333333,20,compatible
1404,2936,22,,correct,,1594806350027,small,157,female,q,german,images/square_2x2.jpg,Wed Jul 15 2020 11:33:03 GMT+0200 (Mitteleuropäische Sommerzeit),1594805583024,12.783383333333333,21,compatible
1404,2965,22,,correct,,1594806350027,large,157,female,p,german,images/square_4x4.jpg,Wed Jul 15 2020 11:33:03 GMT+0200 (Mitteleuropäische Sommerzeit),1594805583024,12.783383333333333,22,compatible
1404,2975,22,,correct,,1594806350027,large,157,female,p,german,images/square_4x4.jpg,Wed Jul 15 2020 11:33:03 GMT+0200 (Mitteleuropäische Sommerzeit),1594805583024,12.783383333333333,23,compatible
1404,2962,22,,correct,,1594806350027,large,157,female,p,german,images/square_4x4.jpg,Wed Jul 15 2020 11:33:03 GMT+0200 (Mitteleuropäische Sommerzeit),1594805583024,12.783383333333333,24,compatible
1404,2954,22,,correct,,1594806350027,large,157,female,p,german,images/square_4x4.jpg,Wed Jul 15 2020 11:33:03 GMT+0200 (Mitteleuropäische Sommerzeit),1594805583024,12.783383333333333,25,compatible
1404,3022,22,,correct,,1594806350027,large,157,female,p,german,images/square_4x4.jpg,Wed Jul 15 2020 11:33:03 GMT+0200 (Mitteleuropäische Sommerzeit),1594805583024,12.783383333333333,26,compatible
1404,3063,22,,correct,,1594806350027,small,157,female,q,german,images/square_2x2.jpg,Wed Jul 15 2020 11:33:03 GMT+0200 (Mitteleuropäische Sommerzeit),1594805583024,12.783383333333333,27,compatible
1404,3078,22,,correct,,1594806350027,small,157,female,q,german,images/square_2x2.jpg,Wed Jul 15 2020 11:33:03 GMT+0200 (Mitteleuropäische Sommerzeit),1594805583024,12.783383333333333,28,compatible
1404,2947,22,,correct,,1594806350027,large,157,female,p,german,images/square_4x4.jpg,Wed Jul 15 2020 11:33:03 GMT+0200 (Mitteleuropäische Sommerzeit),1594805583024,12.783383333333333,29,compatible
1404,2925,22,,correct,,1594806350027,small,157,female,q,german,images/square_2x2.jpg,Wed Jul 15 2020 11:33:03 GMT+0200 (Mitteleuropäische Sommerzeit),1594805583024,12.783383333333333,30,compatible
1404,2969,22,,correct,,1594806350027,large,157,female,p,german,images/square_4x4.jpg,Wed Jul 15 2020 11:33:03 GMT+0200 (Mitteleuropäische Sommerzeit),1594805583024,12.783383333333333,31,compatible
1404,2950,22,,correct,,1594806350027,large,157,female,p,german,images/square_4x4.jpg,Wed Jul 15 2020 11:33:03 GMT+0200 (Mitteleuropäische Sommerzeit),1594805583024,12.783383333333333,32,compatible
1404,2951,22,,correct,,1594806350027,large,157,female,p,german,images/square_4x4.jpg,Wed Jul 15 2020 11:33:03 GMT+0200 (Mitteleuropäische Sommerzeit),1594805583024,12.783383333333333,33,compatible
1404,3053,22,,correct,,1594806350027,small,157,female,q,german,images/square_2x2.jpg,Wed Jul 15 2020 11:33:03 GMT+0200 (Mitteleuropäische Sommerzeit),1594805583024,12.783383333333333,34,compatible
1404,3066,22,,correct,,1594806350027,large,157,female,p,german,images/square_4x4.jpg,Wed Jul 15 2020 11:33:03 GMT+0200 (Mitteleuropäische Sommerzeit),1594805583024,12.783383333333333,35,compatible
1404,3014,22,,correct,,1594806350027,small,157,female,q,german,images/square_2x2.jpg,Wed Jul 15 2020 11:33:03 GMT+0200 (Mitteleuropäische Sommerzeit),1594805583024,12.783383333333333,36,compatible
1404,2989,22,,correct,,1594806350027,small,157,female,q,german,images/square_2x2.jpg,Wed Jul 15 2020 11:33:03 GMT+0200 (Mitteleuropäische Sommerzeit),1594805583024,12.783383333333333,37,compatible
1404,3027,22,,correct,,1594806350027,large,157,female,p,german,images/square_4x4.jpg,Wed Jul 15 2020 11:33:03 GMT+0200 (Mitteleuropäische Sommerzeit),1594805583024,12.783383333333333,38,compatible
1404,2959,22,,correct,,1594806350027,large,157,female,p,german,images/square_4x4.jpg,Wed Jul 15 2020 11:33:03 GMT+0200 (Mitteleuropäische Sommerzeit),1594805583024,12.783383333333333,39,compatible
1404,3016,22,,correct,,1594806350027,small,157,female,q,german,images/square_2x2.jpg,Wed Jul 15 2020 11:33:03 GMT+0200 (Mitteleuropäische Sommerzeit),1594805583024,12.783383333333333,40,compatible
1404,2996,22,,correct,,1594806350027,small,157,female,q,german,images/square_2x2.jpg,Wed Jul 15 2020 11:33:03 GMT+0200 (Mitteleuropäische Sommerzeit),1594805583024,12.783383333333333,41,compatible
1404,2956,22,,correct,,1594806350027,large,157,female,p,german,images/square_4x4.jpg,Wed Jul 15 2020 11:33:03 GMT+0200 (Mitteleuropäische Sommerzeit),1594805583024,12.783383333333333,42,compatible
1404,3013,22,,correct,,1594806350027,large,157,female,p,german,images/square_4x4.jpg,Wed Jul 15 2020 11:33:03 GMT+0200 (Mitteleuropäische Sommerzeit),1594805583024,12.783383333333333,43,compatible
1404,3112,22,,correct,,1594806350027,small,157,female,q,german,images/square_2x2.jpg,Wed Jul 15 2020 11:33:03 GMT+0200 (Mitteleuropäische Sommerzeit),1594805583024,12.783383333333333,44,compatible
1404,2880,22,,correct,,1594806350027,large,157,female,p,german,images/square_4x4.jpg,Wed Jul 15 2020 11:33:03 GMT+0200 (Mitteleuropäische Sommerzeit),1594805583024,12.783383333333333,45,compatible
1404,2953,22,,correct,,1594806350027,large,157,female,p,german,images/square_4x4.jpg,Wed Jul 15 2020 11:33:03 GMT+0200 (Mitteleuropäische Sommerzeit),1594805583024,12.783383333333333,46,compatible
1404,3013,22,,correct,,1594806350027,small,157,female,q,german,images/square_2x2.jpg,Wed Jul 15 2020 11:33:03 GMT+0200 (Mitteleuropäische Sommerzeit),1594805583024,12.783383333333333,47,compatible
1404,3013,22,,correct,,1594806350027,large,157,female,p,german,images/square_4x4.jpg,Wed Jul 15 2020 11:33:03 GMT+0200 (Mitteleuropäische Sommerzeit),1594805583024,12.783383333333333,48,compatible
1404,3014,22,,correct,,1594806350027,small,157,female,q,german,images/square_2x2.jpg,Wed Jul 15 2020 11:33:03 GMT+0200 (Mitteleuropäische Sommerzeit),1594805583024,12.783383333333333,49,compatible
1404,3022,22,,correct,,1594806350027,small,157,female,q,german,images/square_2x2.jpg,Wed Jul 15 2020 11:33:03 GMT+0200 (Mitteleuropäische Sommerzeit),1594805583024,12.783383333333333,50,compatible
1404,2983,22,,correct,,1594806350027,large,157,female,p,german,images/square_4x4.jpg,Wed Jul 15 2020 11:33:03 GMT+0200 (Mitteleuropäische Sommerzeit),1594805583024,12.783383333333333,51,compatible
1404,2963,22,,correct,,1594806350027,small,157,female,q,german,images/square_2x2.jpg,Wed Jul 15 2020 11:33:03 GMT+0200 (Mitteleuropäische Sommerzeit),1594805583024,12.783383333333333,52,compatible
1404,3047,22,,correct,,1594806350027,small,157,female,q,german,images/square_2x2.jpg,Wed Jul 15 2020 11:33:03 GMT+0200 (Mitteleuropäische Sommerzeit),1594805583024,12.783383333333333,53,compatible
1404,3012,22,,correct,,1594806350027,large,157,female,p,german,images/square_4x4.jpg,Wed Jul 15 2020 11:33:03 GMT+0200 (Mitteleuropäische Sommerzeit),1594805583024,12.783383333333333,54,compatible
1404,3050,22,,correct,,1594806350027,small,157,female,q,german,images/square_2x2.jpg,Wed Jul 15 2020 11:33:03 GMT+0200 (Mitteleuropäische Sommerzeit),1594805583024,12.783383333333333,55,compatible
1404,2980,22,,correct,,1594806350027,large,157,female,p,german,images/square_4x4.jpg,Wed Jul 15 2020 11:33:03 GMT+0200 (Mitteleuropäische Sommerzeit),1594805583024,12.783383333333333,56,compatible
1404,2972,22,,correct,,1594806350027,large,157,female,p,german,images/square_4x4.jpg,Wed Jul 15 2020 11:33:03 GMT+0200 (Mitteleuropäische Sommerzeit),1594805583024,12.783383333333333,57,compatible
1404,2986,22,,correct,,1594806350027,small,157,female,q,german,images/square_2x2.jpg,Wed Jul 15 2020 11:33:03 GMT+0200 (Mitteleuropäische Sommerzeit),1594805583024,12.783383333333333,58,compatible
1404,3070,22,,correct,,1594806350027,small,157,female,q,german,images/square_2x2.jpg,Wed Jul 15 2020 11:33:03 GMT+0200 (Mitteleuropäische Sommerzeit),1594805583024,12.783383333333333,59,compatible
1404,2985,22,,correct,,1594806350027,small,157,female,q,german,images/square_2x2.jpg,Wed Jul 15 2020 11:33:03 GMT+0200 (Mitteleuropäische Sommerzeit),1594805583024,12.783383333333333,60,compatible
1404,3090,22,,correct,,1594806350027,large,157,female,q,german,images/square_4x4.jpg,Wed Jul 15 2020 11:33:03 GMT+0200 (Mitteleuropäische Sommerzeit),1594805583024,12.783383333333333,1,incompatible
1404,2963,22,,correct,,1594806350027,large,157,female,q,german,images/square_4x4.jpg,Wed Jul 15 2020 11:33:03 GMT+0200 (Mitteleuropäische Sommerzeit),1594805583024,12.783383333333333,2,incompatible
1404,2979,22,,correct,,1594806350027,large,157,female,q,german,images/square_4x4.jpg,Wed Jul 15 2020 11:33:03 GMT+0200 (Mitteleuropäische Sommerzeit),1594805583024,12.783383333333333,3,incompatible
1404,2969,22,,correct,,1594806350027,large,157,female,q,german,images/square_4x4.jpg,Wed Jul 15 2020 11:33:03 GMT+0200 (Mitteleuropäische Sommerzeit),1594805583024,12.783383333333333,4,incompatible
1404,2981,22,,correct,,1594806350027,small,157,female,p,german,images/square_2x2.jpg,Wed Jul 15 2020 11:33:03 GMT+0200 (Mitteleuropäische Sommerzeit),1594805583024,12.783383333333333,5,incompatible
1404,2938,22,,correct,,1594806350027,large,157,female,q,german,images/square_4x4.jpg,Wed Jul 15 2020 11:33:03 GMT+0200 (Mitteleuropäische Sommerzeit),1594805583024,12.783383333333333,6,incompatible
1404,2930,22,,correct,,1594806350027,large,157,female,q,german,images/square_4x4.jpg,Wed Jul 15 2020 11:33:03 GMT+0200 (Mitteleuropäische Sommerzeit),1594805583024,12.783383333333333,7,incompatible
1404,3136,22,,correct,,1594806350027,small,157,female,p,german,images/square_2x2.jpg,Wed Jul 15 2020 11:33:03 GMT+0200 (Mitteleuropäische Sommerzeit),1594805583024,12.783383333333333,8,incompatible
1404,2891,22,,correct,,1594806350027,large,157,female,q,german,images/square_4x4.jpg,Wed Jul 15 2020 11:33:03 GMT+0200 (Mitteleuropäische Sommerzeit),1594805583024,12.783383333333333,9,incompatible
1404,2968,22,,correct,,1594806350027,small,157,female,p,german,images/square_2x2.jpg,Wed Jul 15 2020 11:33:03 GMT+0200 (Mitteleuropäische Sommerzeit),1594805583024,12.783383333333333,10,incompatible
1404,3046,22,,correct,,1594806350027,small,157,female,p,german,images/square_2x2.jpg,Wed Jul 15 2020 11:33:03 GMT+0200 (Mitteleuropäische Sommerzeit),1594805583024,12.783383333333333,11,incompatible
1404,3010,22,,correct,,1594806350027,small,157,female,p,german,images/square_2x2.jpg,Wed Jul 15 2020 11:33:03 GMT+0200 (Mitteleuropäische Sommerzeit),1594805583024,12.783383333333333,12,incompatible
1404,3026,22,,correct,,1594806350027,small,157,female,p,german,images/square_2x2.jpg,Wed Jul 15 2020 11:33:03 GMT+0200 (Mitteleuropäische Sommerzeit),1594805583024,12.783383333333333,13,incompatible
1404,2912,22,,correct,,1594806350027,large,157,female,q,german,images/square_4x4.jpg,Wed Jul 15 2020 11:33:03 GMT+0200 (Mitteleuropäische Sommerzeit),1594805583024,12.783383333333333,14,incompatible
1404,3000,22,,correct,,1594806350027,large,157,female,q,german,images/square_4x4.jpg,Wed Jul 15 2020 11:33:03 GMT+0200 (Mitteleuropäische Sommerzeit),1594805583024,12.783383333333333,15,incompatible
1404,3039,22,,correct,,1594806350027,large,157,female,q,german,images/square_4x4.jpg,Wed Jul 15 2020 11:33:03 GMT+0200 (Mitteleuropäische Sommerzeit),1594805583024,12.783383333333333,16,incompatible
1404,3031,22,,correct,,1594806350027,small,157,female,p,german,images/square_2x2.jpg,Wed Jul 15 2020 11:33:03 GMT+0200 (Mitteleuropäische Sommerzeit),1594805583024,12.783383333333333,17,incompatible
1404,3081,22,,correct,,1594806350027,small,157,female,p,german,images/square_2x2.jpg,Wed Jul 15 2020 11:33:03 GMT+0200 (Mitteleuropäische Sommerzeit),1594805583024,12.783383333333333,18,incompatible
1404,3028,22,,correct,,1594806350027,small,157,female,p,german,images/square_2x2.jpg,Wed Jul 15 2020 11:33:03 GMT+0200 (Mitteleuropäische Sommerzeit),1594805583024,12.783383333333333,19,incompatible
1404,3039,22,,correct,,1594806350027,large,157,female,q,german,images/square_4x4.jpg,Wed Jul 15 2020 11:33:03 GMT+0200 (Mitteleuropäische Sommerzeit),1594805583024,12.783383333333333,20,incompatible
1404,3056,22,,correct,,1594806350027,large,157,female,q,german,images/square_4x4.jpg,Wed Jul 15 2020 11:33:03 GMT+0200 (Mitteleuropäische Sommerzeit),1594805583024,12.783383333333333,1,incompatible
1404,3104,22,,correct,,1594806350027,large,157,female,q,german,images/square_4x4.jpg,Wed Jul 15 2020 11:33:03 GMT+0200 (Mitteleuropäische Sommerzeit),1594805583024,12.783383333333333,2,incompatible
1404,3020,22,,correct,,1594806350027,large,157,female,q,german,images/square_4x4.jpg,Wed Jul 15 2020 11:33:03 GMT+0200 (Mitteleuropäische Sommerzeit),1594805583024,12.783383333333333,3,incompatible
1404,2971,22,,correct,,1594806350027,small,157,female,p,german,images/square_2x2.jpg,Wed Jul 15 2020 11:33:03 GMT+0200 (Mitteleuropäische Sommerzeit),1594805583024,12.783383333333333,4,incompatible
1404,2900,22,,correct,,1594806350027,small,157,female,p,german,images/square_2x2.jpg,Wed Jul 15 2020 11:33:03 GMT+0200 (Mitteleuropäische Sommerzeit),1594805583024,12.783383333333333,5,incompatible
1404,2982,22,,correct,,1594806350027,small,157,female,p,german,images/square_2x2.jpg,Wed Jul 15 2020 11:33:03 GMT+0200 (Mitteleuropäische Sommerzeit),1594805583024,12.783383333333333,6,incompatible
1404,2983,22,,correct,,1594806350027,large,157,female,q,german,images/square_4x4.jpg,Wed Jul 15 2020 11:33:03 GMT+0200 (Mitteleuropäische Sommerzeit),1594805583024,12.783383333333333,7,incompatible
1404,2985,22,,correct,,1594806350027,small,157,female,p,german,images/square_2x2.jpg,Wed Jul 15 2020 11:33:03 GMT+0200 (Mitteleuropäische Sommerzeit),1594805583024,12.783383333333333,8,incompatible
1404,2941,22,,correct,,1594806350027,large,157,female,q,german,images/square_4x4.jpg,Wed Jul 15 2020 11:33:03 GMT+0200 (Mitteleuropäische Sommerzeit),1594805583024,12.783383333333333,9,incompatible
1404,2963,22,,correct,,1594806350027,small,157,female,p,german,images/square_2x2.jpg,Wed Jul 15 2020 11:33:03 GMT+0200 (Mitteleuropäische Sommerzeit),1594805583024,12.783383333333333,10,incompatible
1404,2985,22,,correct,,1594806350027,large,157,female,q,german,images/square_4x4.jpg,Wed Jul 15 2020 11:33:03 GMT+0200 (Mitteleuropäische Sommerzeit),1594805583024,12.783383333333333,11,incompatible
1404,3064,22,,correct,,1594806350027,small,157,female,p,german,images/square_2x2.jpg,Wed Jul 15 2020 11:33:03 GMT+0200 (Mitteleuropäische Sommerzeit),1594805583024,12.783383333333333,12,incompatible
1404,3007,22,,correct,,1594806350027,small,157,female,p,german,images/square_2x2.jpg,Wed Jul 15 2020 11:33:03 GMT+0200 (Mitteleuropäische Sommerzeit),1594805583024,12.783383333333333,13,incompatible
1404,3026,22,,correct,,1594806350027,small,157,female,p,german,images/square_2x2.jpg,Wed Jul 15 2020 11:33:03 GMT+0200 (Mitteleuropäische Sommerzeit),1594805583024,12.783383333333333,14,incompatible
1404,2941,22,,correct,,1594806350027,large,157,female,q,german,images/square_4x4.jpg,Wed Jul 15 2020 11:33:03 GMT+0200 (Mitteleuropäische Sommerzeit),1594805583024,12.783383333333333,15,incompatible
1404,2965,22,,correct,,1594806350027,small,157,female,p,german,images/square_2x2.jpg,Wed Jul 15 2020 11:33:03 GMT+0200 (Mitteleuropäische Sommerzeit),1594805583024,12.783383333333333,16,incompatible
1404,2961,22,,correct,,1594806350027,small,157,female,p,german,images/square_2x2.jpg,Wed Jul 15 2020 11:33:03 GMT+0200 (Mitteleuropäische Sommerzeit),1594805583024,12.783383333333333,17,incompatible
1404,2947,22,,correct,,1594806350027,small,157,female,p,german,images/square_2x2.jpg,Wed Jul 15 2020 11:33:03 GMT+0200 (Mitteleuropäische Sommerzeit),1594805583024,12.783383333333333,18,incompatible
1404,2968,22,,correct,,1594806350027,large,157,female,q,german,images/square_4x4.jpg,Wed Jul 15 2020 11:33:03 GMT+0200 (Mitteleuropäische Sommerzeit),1594805583024,12.783383333333333,19,incompatible
1404,2991,22,,correct,,1594806350027,large,157,female,q,german,images/square_4x4.jpg,Wed Jul 15 2020 11:33:03 GMT+0200 (Mitteleuropäische Sommerzeit),1594805583024,12.783383333333333,20,incompatible
1404,3017,22,,correct,,1594806350027,large,157,female,q,german,images/square_4x4.jpg,Wed Jul 15 2020 11:33:03 GMT+0200 (Mitteleuropäische Sommerzeit),1594805583024,12.783383333333333,21,incompatible
1404,3057,22,,correct,,1594806350027,small,157,female,p,german,images/square_2x2.jpg,Wed Jul 15 2020 11:33:03 GMT+0200 (Mitteleuropäische Sommerzeit),1594805583024,12.783383333333333,22,incompatible
1404,3103,22,,correct,,1594806350027,large,157,female,q,german,images/square_4x4.jpg,Wed Jul 15 2020 11:33:03 GMT+0200 (Mitteleuropäische Sommerzeit),1594805583024,12.783383333333333,23,incompatible
1404,2991,22,,correct,,1594806350027,large,157,female,q,german,images/square_4x4.jpg,Wed Jul 15 2020 11:33:03 GMT+0200 (Mitteleuropäische Sommerzeit),1594805583024,12.783383333333333,24,incompatible
1404,2987,22,,correct,,1594806350027,small,157,female,p,german,images/square_2x2.jpg,Wed Jul 15 2020 11:33:03 GMT+0200 (Mitteleuropäische Sommerzeit),1594805583024,12.783383333333333,25,incompatible
1404,2999,22,,correct,,1594806350027,large,157,female,q,german,images/square_4x4.jpg,Wed Jul 15 2020 11:33:03 GMT+0200 (Mitteleuropäische Sommerzeit),1594805583024,12.783383333333333,26,incompatible
1404,2989,22,,correct,,1594806350027,small,157,female,p,german,images/square_2x2.jpg,Wed Jul 15 2020 11:33:03 GMT+0200 (Mitteleuropäische Sommerzeit),1594805583024,12.783383333333333,27,incompatible
1404,2980,22,,correct,,1594806350027,small,157,female,p,german,images/square_2x2.jpg,Wed Jul 15 2020 11:33:03 GMT+0200 (Mitteleuropäische Sommerzeit),1594805583024,12.783383333333333,28,incompatible
1404,2988,22,,correct,,1594806350027,small,157,female,p,german,images/square_2x2.jpg,Wed Jul 15 2020 11:33:03 GMT+0200 (Mitteleuropäische Sommerzeit),1594805583024,12.783383333333333,29,incompatible
1404,2963,22,,correct,,1594806350027,small,157,female,p,german,images/square_2x2.jpg,Wed Jul 15 2020 11:33:03 GMT+0200 (Mitteleuropäische Sommerzeit),1594805583024,12.783383333333333,30,incompatible
1404,2992,22,,correct,,1594806350027,small,157,female,p,german,images/square_2x2.jpg,Wed Jul 15 2020 11:33:03 GMT+0200 (Mitteleuropäische Sommerzeit),1594805583024,12.783383333333333,31,incompatible
1404,2972,22,,correct,,1594806350027,large,157,female,q,german,images/square_4x4.jpg,Wed Jul 15 2020 11:33:03 GMT+0200 (Mitteleuropäische Sommerzeit),1594805583024,12.783383333333333,32,incompatible
1404,2951,22,,correct,,1594806350027,small,157,female,p,german,images/square_2x2.jpg,Wed Jul 15 2020 11:33:03 GMT+0200 (Mitteleuropäische Sommerzeit),1594805583024,12.783383333333333,33,incompatible
1404,2919,22,,correct,,1594806350027,small,157,female,p,german,images/square_2x2.jpg,Wed Jul 15 2020 11:33:03 GMT+0200 (Mitteleuropäische Sommerzeit),1594805583024,12.783383333333333,34,incompatible
1404,3056,22,,correct,,1594806350027,large,157,female,q,german,images/square_4x4.jpg,Wed Jul 15 2020 11:33:03 GMT+0200 (Mitteleuropäische Sommerzeit),1594805583024,12.783383333333333,35,incompatible
1404,3032,22,,correct,,1594806350027,large,157,female,q,german,images/square_4x4.jpg,Wed Jul 15 2020 11:33:03 GMT+0200 (Mitteleuropäische Sommerzeit),1594805583024,12.783383333333333,36,incompatible
1404,2986,22,,correct,,1594806350027,large,157,female,q,german,images/square_4x4.jpg,Wed Jul 15 2020 11:33:03 GMT+0200 (Mitteleuropäische Sommerzeit),1594805583024,12.783383333333333,37,incompatible
1404,2960,22,,correct,,1594806350027,small,157,female,p,german,images/square_2x2.jpg,Wed Jul 15 2020 11:33:03 GMT+0200 (Mitteleuropäische Sommerzeit),1594805583024,12.783383333333333,38,incompatible
1404,3014,22,,correct,,1594806350027,large,157,female,q,german,images/square_4x4.jpg,Wed Jul 15 2020 11:33:03 GMT+0200 (Mitteleuropäische Sommerzeit),1594805583024,12.783383333333333,39,incompatible
1404,2975,22,,correct,,1594806350027,large,157,female,q,german,images/square_4x4.jpg,Wed Jul 15 2020 11:33:03 GMT+0200 (Mitteleuropäische Sommerzeit),1594805583024,12.783383333333333,40,incompatible
1404,2983,22,,correct,,1594806350027,small,157,female,p,german,images/square_2x2.jpg,Wed Jul 15 2020 11:33:03 GMT+0200 (Mitteleuropäische Sommerzeit),1594805583024,12.783383333333333,41,incompatible
1404,2988,22,,correct,,1594806350027,small,157,female,p,german,images/square_2x2.jpg,Wed Jul 15 2020 11:33:03 GMT+0200 (Mitteleuropäische Sommerzeit),1594805583024,12.783383333333333,42,incompatible
1404,2954,22,,correct,,1594806350027,small,157,female,p,german,images/square_2x2.jpg,Wed Jul 15 2020 11:33:03 GMT+0200 (Mitteleuropäische Sommerzeit),1594805583024,12.783383333333333,43,incompatible
1404,3000,22,,correct,,1594806350027,large,157,female,q,german,images/square_4x4.jpg,Wed Jul 15 2020 11:33:03 GMT+0200 (Mitteleuropäische Sommerzeit),1594805583024,12.783383333333333,44,incompatible
1404,2982,22,,correct,,1594806350027,small,157,female,p,german,images/square_2x2.jpg,Wed Jul 15 2020 11:33:03 GMT+0200 (Mitteleuropäische Sommerzeit),1594805583024,12.783383333333333,45,incompatible
1404,2971,22,,correct,,1594806350027,large,157,female,q,german,images/square_4x4.jpg,Wed Jul 15 2020 11:33:03 GMT+0200 (Mitteleuropäische Sommerzeit),1594805583024,12.783383333333333,46,incompatible
1404,3002,22,,correct,,1594806350027,small,157,female,p,german,images/square_2x2.jpg,Wed Jul 15 2020 11:33:03 GMT+0200 (Mitteleuropäische Sommerzeit),1594805583024,12.783383333333333,47,incompatible
1404,2998,22,,correct,,1594806350027,large,157,female,q,german,images/square_4x4.jpg,Wed Jul 15 2020 11:33:03 GMT+0200 (Mitteleuropäische Sommerzeit),1594805583024,12.783383333333333,48,incompatible
1404,3153,22,,correct,,1594806350027,large,157,female,q,german,images/square_4x4.jpg,Wed Jul 15 2020 11:33:03 GMT+0200 (Mitteleuropäische Sommerzeit),1594805583024,12.783383333333333,49,incompatible
1404,2944,22,,correct,,1594806350027,large,157,female,q,german,images/square_4x4.jpg,Wed Jul 15 2020 11:33:03 GMT+0200 (Mitteleuropäische Sommerzeit),1594805583024,12.783383333333333,50,incompatible
1404,2927,22,,correct,,1594806350027,large,157,female,q,german,images/square_4x4.jpg,Wed Jul 15 2020 11:33:03 GMT+0200 (Mitteleuropäische Sommerzeit),1594805583024,12.783383333333333,51,incompatible
1404,3125,22,,correct,,1594806350027,large,157,female,q,german,images/square_4x4.jpg,Wed Jul 15 2020 11:33:03 GMT+0200 (Mitteleuropäische Sommerzeit),1594805583024,12.783383333333333,52,incompatible
1404,2940,22,,correct,,1594806350027,large,157,female,q,german,images/square_4x4.jpg,Wed Jul 15 2020 11:33:03 GMT+0200 (Mitteleuropäische Sommerzeit),1594805583024,12.783383333333333,53,incompatible
1404,2932,22,,correct,,1594806350027,small,157,female,p,german,images/square_2x2.jpg,Wed Jul 15 2020 11:33:03 GMT+0200 (Mitteleuropäische Sommerzeit),1594805583024,12.783383333333333,54,incompatible
1404,2941,22,,correct,,1594806350027,large,157,female,q,german,images/square_4x4.jpg,Wed Jul 15 2020 11:33:03 GMT+0200 (Mitteleuropäische Sommerzeit),1594805583024,12.783383333333333,55,incompatible
1404,3055,22,,correct,,1594806350027,large,157,female,q,german,images/square_4x4.jpg,Wed Jul 15 2020 11:33:03 GMT+0200 (Mitteleuropäische Sommerzeit),1594805583024,12.783383333333333,56,incompatible
1404,2991,22,,correct,,1594806350027,small,157,female,p,german,images/square_2x2.jpg,Wed Jul 15 2020 11:33:03 GMT+0200 (Mitteleuropäische Sommerzeit),1594805583024,12.783383333333333,57,incompatible
1404,3041,22,,correct,,1594806350027,small,157,female,p,german,images/square_2x2.jpg,Wed Jul 15 2020 11:33:03 GMT+0200 (Mitteleuropäische Sommerzeit),1594805583024,12.783383333333333,58,incompatible
1404,2944,22,,correct,,1594806350027,small,157,female,p,german,images/square_2x2.jpg,Wed Jul 15 2020 11:33:03 GMT+0200 (Mitteleuropäische Sommerzeit),1594805583024,12.783383333333333,59,incompatible
1404,2999,22,,correct,,1594806350027,large,157,female,q,german,images/square_4x4.jpg,Wed Jul 15 2020 11:33:03 GMT+0200 (Mitteleuropäische Sommerzeit),1594805583024,12.783383333333333,60,incompatible
1403,3711,27,,correct,Graduated College,1594804509110,large,157,male,q,,images/square_4x4.jpg,Wed Jul 15 2020 11:02:32 GMT+0200 (CEST),1594803752717,12.60655,1,incompatible
1403,3030,27,,correct,Graduated College,1594804509110,large,157,male,q,,images/square_4x4.jpg,Wed Jul 15 2020 11:02:32 GMT+0200 (CEST),1594803752717,12.60655,2,incompatible
1403,3015,27,,correct,Graduated College,1594804509110,large,157,male,q,,images/square_4x4.jpg,Wed Jul 15 2020 11:02:32 GMT+0200 (CEST),1594803752717,12.60655,3,incompatible
1403,2966,27,,correct,Graduated College,1594804509110,large,157,male,q,,images/square_4x4.jpg,Wed Jul 15 2020 11:02:32 GMT+0200 (CEST),1594803752717,12.60655,4,incompatible
1403,2987,27,,correct,Graduated College,1594804509110,large,157,male,q,,images/square_4x4.jpg,Wed Jul 15 2020 11:02:32 GMT+0200 (CEST),1594803752717,12.60655,5,incompatible
1403,3091,27,,correct,Graduated College,1594804509110,small,157,male,p,,images/square_2x2.jpg,Wed Jul 15 2020 11:02:32 GMT+0200 (CEST),1594803752717,12.60655,6,incompatible
1403,2981,27,,correct,Graduated College,1594804509110,large,157,male,q,,images/square_4x4.jpg,Wed Jul 15 2020 11:02:32 GMT+0200 (CEST),1594803752717,12.60655,7,incompatible
1403,2976,27,,correct,Graduated College,1594804509110,small,157,male,p,,images/square_2x2.jpg,Wed Jul 15 2020 11:02:32 GMT+0200 (CEST),1594803752717,12.60655,8,incompatible
1403,2995,27,,correct,Graduated College,1594804509110,small,157,male,p,,images/square_2x2.jpg,Wed Jul 15 2020 11:02:32 GMT+0200 (CEST),1594803752717,12.60655,9,incompatible
1403,3020,27,,correct,Graduated College,1594804509110,large,157,male,q,,images/square_4x4.jpg,Wed Jul 15 2020 11:02:32 GMT+0200 (CEST),1594803752717,12.60655,10,incompatible
1403,2957,27,,correct,Graduated College,1594804509110,large,157,male,q,,images/square_4x4.jpg,Wed Jul 15 2020 11:02:32 GMT+0200 (CEST),1594803752717,12.60655,1,incompatible
1403,3059,27,,correct,Graduated College,1594804509110,large,157,male,q,,images/square_4x4.jpg,Wed Jul 15 2020 11:02:32 GMT+0200 (CEST),1594803752717,12.60655,2,incompatible
1403,2990,27,,correct,Graduated College,1594804509110,small,157,male,p,,images/square_2x2.jpg,Wed Jul 15 2020 11:02:32 GMT+0200 (CEST),1594803752717,12.60655,3,incompatible
1403,3041,27,,correct,Graduated College,1594804509110,large,157,male,q,,images/square_4x4.jpg,Wed Jul 15 2020 11:02:32 GMT+0200 (CEST),1594803752717,12.60655,4,incompatible
1403,2897,27,,correct,Graduated College,1594804509110,small,157,male,p,,images/square_2x2.jpg,Wed Jul 15 2020 11:02:32 GMT+0200 (CEST),1594803752717,12.60655,5,incompatible
1403,3045,27,,correct,Graduated College,1594804509110,small,157,male,p,,images/square_2x2.jpg,Wed Jul 15 2020 11:02:32 GMT+0200 (CEST),1594803752717,12.60655,6,incompatible
1403,2940,27,,correct,Graduated College,1594804509110,small,157,male,p,,images/square_2x2.jpg,Wed Jul 15 2020 11:02:32 GMT+0200 (CEST),1594803752717,12.60655,7,incompatible
1403,2877,27,,correct,Graduated College,1594804509110,small,157,male,p,,images/square_2x2.jpg,Wed Jul 15 2020 11:02:32 GMT+0200 (CEST),1594803752717,12.60655,8,incompatible
1403,2902,27,,incorrect,Graduated College,1594804509110,small,157,male,q,,images/square_2x2.jpg,Wed Jul 15 2020 11:02:32 GMT+0200 (CEST),1594803752717,12.60655,9,incompatible
1403,2868,27,,incorrect,Graduated College,1594804509110,large,157,male,p,,images/square_4x4.jpg,Wed Jul 15 2020 11:02:32 GMT+0200 (CEST),1594803752717,12.60655,10,incompatible
1403,3502,27,,correct,Graduated College,1594804509110,small,157,male,p,,images/square_2x2.jpg,Wed Jul 15 2020 11:02:32 GMT+0200 (CEST),1594803752717,12.60655,11,incompatible
1403,2940,27,,correct,Graduated College,1594804509110,large,157,male,q,,images/square_4x4.jpg,Wed Jul 15 2020 11:02:32 GMT+0200 (CEST),1594803752717,12.60655,12,incompatible
1403,3063,27,,correct,Graduated College,1594804509110,small,157,male,p,,images/square_2x2.jpg,Wed Jul 15 2020 11:02:32 GMT+0200 (CEST),1594803752717,12.60655,13,incompatible
1403,2996,27,,correct,Graduated College,1594804509110,small,157,male,p,,images/square_2x2.jpg,Wed Jul 15 2020 11:02:32 GMT+0200 (CEST),1594803752717,12.60655,14,incompatible
1403,2965,27,,correct,Graduated College,1594804509110,large,157,male,q,,images/square_4x4.jpg,Wed Jul 15 2020 11:02:32 GMT+0200 (CEST),1594803752717,12.60655,15,incompatible
1403,3057,27,,correct,Graduated College,1594804509110,small,157,male,p,,images/square_2x2.jpg,Wed Jul 15 2020 11:02:32 GMT+0200 (CEST),1594803752717,12.60655,16,incompatible
1403,2936,27,,correct,Graduated College,1594804509110,large,157,male,q,,images/square_4x4.jpg,Wed Jul 15 2020 11:02:32 GMT+0200 (CEST),1594803752717,12.60655,17,incompatible
1403,2985,27,,correct,Graduated College,1594804509110,small,157,male,p,,images/square_2x2.jpg,Wed Jul 15 2020 11:02:32 GMT+0200 (CEST),1594803752717,12.60655,18,incompatible
1403,2907,27,,correct,Graduated College,1594804509110,large,157,male,q,,images/square_4x4.jpg,Wed Jul 15 2020 11:02:32 GMT+0200 (CEST),1594803752717,12.60655,19,incompatible
1403,3091,27,,correct,Graduated College,1594804509110,large,157,male,q,,images/square_4x4.jpg,Wed Jul 15 2020 11:02:32 GMT+0200 (CEST),1594803752717,12.60655,20,incompatible
1403,3043,27,,correct,Graduated College,1594804509110,large,157,male,q,,images/square_4x4.jpg,Wed Jul 15 2020 11:02:32 GMT+0200 (CEST),1594803752717,12.60655,21,incompatible
1403,2950,27,,correct,Graduated College,1594804509110,large,157,male,q,,images/square_4x4.jpg,Wed Jul 15 2020 11:02:32 GMT+0200 (CEST),1594803752717,12.60655,22,incompatible
1403,3100,27,,correct,Graduated College,1594804509110,small,157,male,p,,images/square_2x2.jpg,Wed Jul 15 2020 11:02:32 GMT+0200 (CEST),1594803752717,12.60655,23,incompatible
1403,2927,27,,correct,Graduated College,1594804509110,large,157,male,q,,images/square_4x4.jpg,Wed Jul 15 2020 11:02:32 GMT+0200 (CEST),1594803752717,12.60655,24,incompatible
1403,3084,27,,correct,Graduated College,1594804509110,small,157,male,p,,images/square_2x2.jpg,Wed Jul 15 2020 11:02:32 GMT+0200 (CEST),1594803752717,12.60655,25,incompatible
1403,3057,27,,correct,Graduated College,1594804509110,small,157,male,p,,images/square_2x2.jpg,Wed Jul 15 2020 11:02:32 GMT+0200 (CEST),1594803752717,12.60655,26,incompatible
1403,2973,27,,correct,Graduated College,1594804509110,small,157,male,p,,images/square_2x2.jpg,Wed Jul 15 2020 11:02:32 GMT+0200 (CEST),1594803752717,12.60655,27,incompatible
1403,3064,27,,correct,Graduated College,1594804509110,large,157,male,q,,images/square_4x4.jpg,Wed Jul 15 2020 11:02:32 GMT+0200 (CEST),1594803752717,12.60655,28,incompatible
1403,3013,27,,correct,Graduated College,1594804509110,small,157,male,p,,images/square_2x2.jpg,Wed Jul 15 2020 11:02:32 GMT+0200 (CEST),1594803752717,12.60655,29,incompatible
1403,2998,27,,correct,Graduated College,1594804509110,large,157,male,q,,images/square_4x4.jpg,Wed Jul 15 2020 11:02:32 GMT+0200 (CEST),1594803752717,12.60655,30,incompatible
1403,2989,27,,correct,Graduated College,1594804509110,small,157,male,p,,images/square_2x2.jpg,Wed Jul 15 2020 11:02:32 GMT+0200 (CEST),1594803752717,12.60655,31,incompatible
1403,2930,27,,correct,Graduated College,1594804509110,large,157,male,q,,images/square_4x4.jpg,Wed Jul 15 2020 11:02:32 GMT+0200 (CEST),1594803752717,12.60655,32,incompatible
1403,2978,27,,correct,Graduated College,1594804509110,large,157,male,q,,images/square_4x4.jpg,Wed Jul 15 2020 11:02:32 GMT+0200 (CEST),1594803752717,12.60655,33,incompatible
1403,2986,27,,correct,Graduated College,1594804509110,large,157,male,q,,images/square_4x4.jpg,Wed Jul 15 2020 11:02:32 GMT+0200 (CEST),1594803752717,12.60655,34,incompatible
1403,3005,27,,correct,Graduated College,1594804509110,large,157,male,q,,images/square_4x4.jpg,Wed Jul 15 2020 11:02:32 GMT+0200 (CEST),1594803752717,12.60655,35,incompatible
1403,2967,27,,correct,Graduated College,1594804509110,small,157,male,p,,images/square_2x2.jpg,Wed Jul 15 2020 11:02:32 GMT+0200 (CEST),1594803752717,12.60655,36,incompatible
1403,2931,27,,correct,Graduated College,1594804509110,large,157,male,q,,images/square_4x4.jpg,Wed Jul 15 2020 11:02:32 GMT+0200 (CEST),1594803752717,12.60655,37,incompatible
1403,3000,27,,correct,Graduated College,1594804509110,large,157,male,q,,images/square_4x4.jpg,Wed Jul 15 2020 11:02:32 GMT+0200 (CEST),1594803752717,12.60655,38,incompatible
1403,2952,27,,correct,Graduated College,1594804509110,small,157,male,p,,images/square_2x2.jpg,Wed Jul 15 2020 11:02:32 GMT+0200 (CEST),1594803752717,12.60655,39,incompatible
1403,3042,27,,correct,Graduated College,1594804509110,small,157,male,p,,images/square_2x2.jpg,Wed Jul 15 2020 11:02:32 GMT+0200 (CEST),1594803752717,12.60655,40,incompatible
1403,2906,27,,correct,Graduated College,1594804509110,small,157,male,p,,images/square_2x2.jpg,Wed Jul 15 2020 11:02:32 GMT+0200 (CEST),1594803752717,12.60655,41,incompatible
1403,2897,27,,correct,Graduated College,1594804509110,large,157,male,q,,images/square_4x4.jpg,Wed Jul 15 2020 11:02:32 GMT+0200 (CEST),1594803752717,12.60655,42,incompatible
1403,3011,27,,correct,Graduated College,1594804509110,small,157,male,p,,images/square_2x2.jpg,Wed Jul 15 2020 11:02:32 GMT+0200 (CEST),1594803752717,12.60655,43,incompatible
1403,3011,27,,correct,Graduated College,1594804509110,small,157,male,p,,images/square_2x2.jpg,Wed Jul 15 2020 11:02:32 GMT+0200 (CEST),1594803752717,12.60655,44,incompatible
1403,3062,27,,correct,Graduated College,1594804509110,large,157,male,q,,images/square_4x4.jpg,Wed Jul 15 2020 11:02:32 GMT+0200 (CEST),1594803752717,12.60655,45,incompatible
1403,3148,27,,correct,Graduated College,1594804509110,large,157,male,q,,images/square_4x4.jpg,Wed Jul 15 2020 11:02:32 GMT+0200 (CEST),1594803752717,12.60655,46,incompatible
1403,3108,27,,correct,Graduated College,1594804509110,small,157,male,p,,images/square_2x2.jpg,Wed Jul 15 2020 11:02:32 GMT+0200 (CEST),1594803752717,12.60655,47,incompatible
1403,2938,27,,correct,Graduated College,1594804509110,small,157,male,p,,images/square_2x2.jpg,Wed Jul 15 2020 11:02:32 GMT+0200 (CEST),1594803752717,12.60655,48,incompatible
1403,3078,27,,correct,Graduated College,1594804509110,large,157,male,q,,images/square_4x4.jpg,Wed Jul 15 2020 11:02:32 GMT+0200 (CEST),1594803752717,12.60655,49,incompatible
1403,3083,27,,correct,Graduated College,1594804509110,large,157,male,q,,images/square_4x4.jpg,Wed Jul 15 2020 11:02:32 GMT+0200 (CEST),1594803752717,12.60655,50,incompatible
1403,3034,27,,correct,Graduated College,1594804509110,small,157,male,p,,images/square_2x2.jpg,Wed Jul 15 2020 11:02:32 GMT+0200 (CEST),1594803752717,12.60655,51,incompatible
1403,3123,27,,correct,Graduated College,1594804509110,large,157,male,q,,images/square_4x4.jpg,Wed Jul 15 2020 11:02:32 GMT+0200 (CEST),1594803752717,12.60655,52,incompatible
1403,3051,27,,correct,Graduated College,1594804509110,small,157,male,p,,images/square_2x2.jpg,Wed Jul 15 2020 11:02:32 GMT+0200 (CEST),1594803752717,12.60655,53,incompatible
1403,2970,27,,correct,Graduated College,1594804509110,large,157,male,q,,images/square_4x4.jpg,Wed Jul 15 2020 11:02:32 GMT+0200 (CEST),1594803752717,12.60655,54,incompatible
1403,3103,27,,correct,Graduated College,1594804509110,large,157,male,q,,images/square_4x4.jpg,Wed Jul 15 2020 11:02:32 GMT+0200 (CEST),1594803752717,12.60655,55,incompatible
1403,3019,27,,correct,Graduated College,1594804509110,small,157,male,p,,images/square_2x2.jpg,Wed Jul 15 2020 11:02:32 GMT+0200 (CEST),1594803752717,12.60655,56,incompatible
1403,3052,27,,correct,Graduated College,1594804509110,large,157,male,q,,images/square_4x4.jpg,Wed Jul 15 2020 11:02:32 GMT+0200 (CEST),1594803752717,12.60655,57,incompatible
1403,3062,27,,correct,Graduated College,1594804509110,small,157,male,p,,images/square_2x2.jpg,Wed Jul 15 2020 11:02:32 GMT+0200 (CEST),1594803752717,12.60655,58,incompatible
1403,3158,27,,correct,Graduated College,1594804509110,large,157,male,q,,images/square_4x4.jpg,Wed Jul 15 2020 11:02:32 GMT+0200 (CEST),1594803752717,12.60655,59,incompatible
1403,2963,27,,correct,Graduated College,1594804509110,small,157,male,p,,images/square_2x2.jpg,Wed Jul 15 2020 11:02:32 GMT+0200 (CEST),1594803752717,12.60655,60,incompatible
1403,3179,27,,correct,Graduated College,1594804509110,large,157,male,p,,images/square_4x4.jpg,Wed Jul 15 2020 11:02:32 GMT+0200 (CEST),1594803752717,12.60655,1,compatible
1403,2983,27,,correct,Graduated College,1594804509110,large,157,male,p,,images/square_4x4.jpg,Wed Jul 15 2020 11:02:32 GMT+0200 (CEST),1594803752717,12.60655,2,compatible
1403,2949,27,,correct,Graduated College,1594804509110,large,157,male,p,,images/square_4x4.jpg,Wed Jul 15 2020 11:02:32 GMT+0200 (CEST),1594803752717,12.60655,3,compatible
1403,2989,27,,correct,Graduated College,1594804509110,small,157,male,q,,images/square_2x2.jpg,Wed Jul 15 2020 11:02:32 GMT+0200 (CEST),1594803752717,12.60655,4,compatible
1403,3024,27,,correct,Graduated College,1594804509110,small,157,male,q,,images/square_2x2.jpg,Wed Jul 15 2020 11:02:32 GMT+0200 (CEST),1594803752717,12.60655,5,compatible
1403,3030,27,,correct,Graduated College,1594804509110,small,157,male,q,,images/square_2x2.jpg,Wed Jul 15 2020 11:02:32 GMT+0200 (CEST),1594803752717,12.60655,6,compatible
1403,2839,27,,correct,Graduated College,1594804509110,large,157,male,p,,images/square_4x4.jpg,Wed Jul 15 2020 11:02:32 GMT+0200 (CEST),1594803752717,12.60655,7,compatible
1403,2973,27,,correct,Graduated College,1594804509110,large,157,male,p,,images/square_4x4.jpg,Wed Jul 15 2020 11:02:32 GMT+0200 (CEST),1594803752717,12.60655,8,compatible
1403,2997,27,,correct,Graduated College,1594804509110,small,157,male,q,,images/square_2x2.jpg,Wed Jul 15 2020 11:02:32 GMT+0200 (CEST),1594803752717,12.60655,9,compatible
1403,2867,27,,correct,Graduated College,1594804509110,large,157,male,p,,images/square_4x4.jpg,Wed Jul 15 2020 11:02:32 GMT+0200 (CEST),1594803752717,12.60655,10,compatible
1403,2890,27,,incorrect,Graduated College,1594804509110,small,157,male,p,,images/square_2x2.jpg,Wed Jul 15 2020 11:02:32 GMT+0200 (CEST),1594803752717,12.60655,11,compatible
1403,2981,27,,correct,Graduated College,1594804509110,small,157,male,q,,images/square_2x2.jpg,Wed Jul 15 2020 11:02:32 GMT+0200 (CEST),1594803752717,12.60655,12,compatible
1403,2933,27,,incorrect,Graduated College,1594804509110,small,157,male,p,,images/square_2x2.jpg,Wed Jul 15 2020 11:02:32 GMT+0200 (CEST),1594803752717,12.60655,13,compatible
1403,3011,27,,correct,Graduated College,1594804509110,small,157,male,q,,images/square_2x2.jpg,Wed Jul 15 2020 11:02:32 GMT+0200 (CEST),1594803752717,12.60655,14,compatible
1403,2857,27,,correct,Graduated College,1594804509110,large,157,male,p,,images/square_4x4.jpg,Wed Jul 15 2020 11:02:32 GMT+0200 (CEST),1594803752717,12.60655,15,compatible
1403,3118,27,,correct,Graduated College,1594804509110,large,157,male,p,,images/square_4x4.jpg,Wed Jul 15 2020 11:02:32 GMT+0200 (CEST),1594803752717,12.60655,16,compatible
1403,3020,27,,incorrect,Graduated College,1594804509110,large,157,male,q,,images/square_4x4.jpg,Wed Jul 15 2020 11:02:32 GMT+0200 (CEST),1594803752717,12.60655,17,compatible
1403,3486,27,,correct,Graduated College,1594804509110,small,157,male,q,,images/square_2x2.jpg,Wed Jul 15 2020 11:02:32 GMT+0200 (CEST),1594803752717,12.60655,18,compatible
1403,3152,27,,correct,Graduated College,1594804509110,small,157,male,q,,images/square_2x2.jpg,Wed Jul 15 2020 11:02:32 GMT+0200 (CEST),1594803752717,12.60655,19,compatible
1403,2965,27,,correct,Graduated College,1594804509110,large,157,male,p,,images/square_4x4.jpg,Wed Jul 15 2020 11:02:32 GMT+0200 (CEST),1594803752717,12.60655,20,compatible
1403,3240,27,,correct,Graduated College,1594804509110,small,157,male,q,,images/square_2x2.jpg,Wed Jul 15 2020 11:02:32 GMT+0200 (CEST),1594803752717,12.60655,1,compatible
1403,2917,27,,correct,Graduated College,1594804509110,large,157,male,p,,images/square_4x4.jpg,Wed Jul 15 2020 11:02:32 GMT+0200 (CEST),1594803752717,12.60655,2,compatible
1403,3152,27,,correct,Graduated College,1594804509110,small,157,male,q,,images/square_2x2.jpg,Wed Jul 15 2020 11:02:32 GMT+0200 (CEST),1594803752717,12.60655,3,compatible
1403,3018,27,,correct,Graduated College,1594804509110,small,157,male,q,,images/square_2x2.jpg,Wed Jul 15 2020 11:02:32 GMT+0200 (CEST),1594803752717,12.60655,4,compatible
1403,3041,27,,correct,Graduated College,1594804509110,large,157,male,p,,images/square_4x4.jpg,Wed Jul 15 2020 11:02:32 GMT+0200 (CEST),1594803752717,12.60655,5,compatible
1403,2931,27,,correct,Graduated College,1594804509110,large,157,male,p,,images/square_4x4.jpg,Wed Jul 15 2020 11:02:32 GMT+0200 (CEST),1594803752717,12.60655,6,compatible
1403,3056,27,,incorrect,Graduated College,1594804509110,large,157,male,q,,images/square_4x4.jpg,Wed Jul 15 2020 11:02:32 GMT+0200 (CEST),1594803752717,12.60655,7,compatible
1403,3131,27,,correct,Graduated College,1594804509110,small,157,male,q,,images/square_2x2.jpg,Wed Jul 15 2020 11:02:32 GMT+0200 (CEST),1594803752717,12.60655,8,compatible
1403,2945,27,,correct,Graduated College,1594804509110,large,157,male,p,,images/square_4x4.jpg,Wed Jul 15 2020 11:02:32 GMT+0200 (CEST),1594803752717,12.60655,9,compatible
1403,2988,27,,correct,Graduated College,1594804509110,large,157,male,p,,images/square_4x4.jpg,Wed Jul 15 2020 11:02:32 GMT+0200 (CEST),1594803752717,12.60655,10,compatible
1403,3067,27,,correct,Graduated College,1594804509110,large,157,male,p,,images/square_4x4.jpg,Wed Jul 15 2020 11:02:32 GMT+0200 (CEST),1594803752717,12.60655,11,compatible
1403,2998,27,,correct,Graduated College,1594804509110,large,157,male,p,,images/square_4x4.jpg,Wed Jul 15 2020 11:02:32 GMT+0200 (CEST),1594803752717,12.60655,12,compatible
1403,3032,27,,correct,Graduated College,1594804509110,large,157,male,p,,images/square_4x4.jpg,Wed Jul 15 2020 11:02:32 GMT+0200 (CEST),1594803752717,12.60655,13,compatible
1403,3000,27,,correct,Graduated College,1594804509110,large,157,male,p,,images/square_4x4.jpg,Wed Jul 15 2020 11:02:32 GMT+0200 (CEST),1594803752717,12.60655,14,compatible
1403,2989,27,,correct,Graduated College,1594804509110,large,157,male,p,,images/square_4x4.jpg,Wed Jul 15 2020 11:02:32 GMT+0200 (CEST),1594803752717,12.60655,15,compatible
1403,2962,27,,correct,Graduated College,1594804509110,large,157,male,p,,images/square_4x4.jpg,Wed Jul 15 2020 11:02:32 GMT+0200 (CEST),1594803752717,12.60655,16,compatible
1403,3001,27,,correct,Graduated College,1594804509110,small,157,male,q,,images/square_2x2.jpg,Wed Jul 15 2020 11:02:32 GMT+0200 (CEST),1594803752717,12.60655,17,compatible
1403,3027,27,,correct,Graduated College,1594804509110,small,157,male,q,,images/square_2x2.jpg,Wed Jul 15 2020 11:02:32 GMT+0200 (CEST),1594803752717,12.60655,18,compatible
1403,3054,27,,correct,Graduated College,1594804509110,large,157,male,p,,images/square_4x4.jpg,Wed Jul 15 2020 11:02:32 GMT+0200 (CEST),1594803752717,12.60655,19,compatible
1403,2939,27,,correct,Graduated College,1594804509110,large,157,male,p,,images/square_4x4.jpg,Wed Jul 15 2020 11:02:32 GMT+0200 (CEST),1594803752717,12.60655,20,compatible
1403,3002,27,,correct,Graduated College,1594804509110,small,157,male,q,,images/square_2x2.jpg,Wed Jul 15 2020 11:02:32 GMT+0200 (CEST),1594803752717,12.60655,21,compatible
1403,3007,27,,correct,Graduated College,1594804509110,small,157,male,q,,images/square_2x2.jpg,Wed Jul 15 2020 11:02:32 GMT+0200 (CEST),1594803752717,12.60655,22,compatible
1403,2980,27,,correct,Graduated College,1594804509110,large,157,male,p,,images/square_4x4.jpg,Wed Jul 15 2020 11:02:32 GMT+0200 (CEST),1594803752717,12.60655,23,compatible
1403,2944,27,,correct,Graduated College,1594804509110,small,157,male,q,,images/square_2x2.jpg,Wed Jul 15 2020 11:02:32 GMT+0200 (CEST),1594803752717,12.60655,24,compatible
1403,3119,27,,correct,Graduated College,1594804509110,small,157,male,q,,images/square_2x2.jpg,Wed Jul 15 2020 11:02:32 GMT+0200 (CEST),1594803752717,12.60655,25,compatible
1403,3091,27,,correct,Graduated College,1594804509110,small,157,male,q,,images/square_2x2.jpg,Wed Jul 15 2020 11:02:32 GMT+0200 (CEST),1594803752717,12.60655,26,compatible
1403,2970,27,,correct,Graduated College,1594804509110,large,157,male,p,,images/square_4x4.jpg,Wed Jul 15 2020 11:02:32 GMT+0200 (CEST),1594803752717,12.60655,27,compatible
1403,3327,27,,correct,Graduated College,1594804509110,small,157,male,q,,images/square_2x2.jpg,Wed Jul 15 2020 11:02:32 GMT+0200 (CEST),1594803752717,12.60655,28,compatible
1403,3040,27,,correct,Graduated College,1594804509110,small,157,male,q,,images/square_2x2.jpg,Wed Jul 15 2020 11:02:32 GMT+0200 (CEST),1594803752717,12.60655,29,compatible
1403,3032,27,,correct,Graduated College,1594804509110,large,157,male,p,,images/square_4x4.jpg,Wed Jul 15 2020 11:02:32 GMT+0200 (CEST),1594803752717,12.60655,30,compatible
1403,3019,27,,correct,Graduated College,1594804509110,large,157,male,p,,images/square_4x4.jpg,Wed Jul 15 2020 11:02:32 GMT+0200 (CEST),1594803752717,12.60655,31,compatible
1403,3050,27,,correct,Graduated College,1594804509110,small,157,male,q,,images/square_2x2.jpg,Wed Jul 15 2020 11:02:32 GMT+0200 (CEST),1594803752717,12.60655,32,compatible
1403,3015,27,,correct,Graduated College,1594804509110,large,157,male,p,,images/square_4x4.jpg,Wed Jul 15 2020 11:02:32 GMT+0200 (CEST),1594803752717,12.60655,33,compatible
1403,3144,27,,correct,Graduated College,1594804509110,small,157,male,q,,images/square_2x2.jpg,Wed Jul 15 2020 11:02:32 GMT+0200 (CEST),1594803752717,12.60655,34,compatible
1403,3126,27,,correct,Graduated College,1594804509110,small,157,male,q,,images/square_2x2.jpg,Wed Jul 15 2020 11:02:32 GMT+0200 (CEST),1594803752717,12.60655,35,compatible
1403,3089,27,,correct,Graduated College,1594804509110,large,157,male,p,,images/square_4x4.jpg,Wed Jul 15 2020 11:02:32 GMT+0200 (CEST),1594803752717,12.60655,36,compatible
1403,3028,27,,correct,Graduated College,1594804509110,small,157,male,q,,images/square_2x2.jpg,Wed Jul 15 2020 11:02:32 GMT+0200 (CEST),1594803752717,12.60655,37,compatible
1403,2925,27,,correct,Graduated College,1594804509110,large,157,male,p,,images/square_4x4.jpg,Wed Jul 15 2020 11:02:32 GMT+0200 (CEST),1594803752717,12.60655,38,compatible
1403,3069,27,,correct,Graduated College,1594804509110,small,157,male,q,,images/square_2x2.jpg,Wed Jul 15 2020 11:02:32 GMT+0200 (CEST),1594803752717,12.60655,39,compatible
1403,2999,27,,correct,Graduated College,1594804509110,large,157,male,p,,images/square_4x4.jpg,Wed Jul 15 2020 11:02:32 GMT+0200 (CEST),1594803752717,12.60655,40,compatible
1403,3141,27,,correct,Graduated College,1594804509110,large,157,male,p,,images/square_4x4.jpg,Wed Jul 15 2020 11:02:32 GMT+0200 (CEST),1594803752717,12.60655,41,compatible
1403,3027,27,,correct,Graduated College,1594804509110,small,157,male,q,,images/square_2x2.jpg,Wed Jul 15 2020 11:02:32 GMT+0200 (CEST),1594803752717,12.60655,42,compatible
1403,3076,27,,correct,Graduated College,1594804509110,small,157,male,q,,images/square_2x2.jpg,Wed Jul 15 2020 11:02:32 GMT+0200 (CEST),1594803752717,12.60655,43,compatible
1403,3134,27,,correct,Graduated College,1594804509110,large,157,male,p,,images/square_4x4.jpg,Wed Jul 15 2020 11:02:32 GMT+0200 (CEST),1594803752717,12.60655,44,compatible
1403,3157,27,,correct,Graduated College,1594804509110,large,157,male,p,,images/square_4x4.jpg,Wed Jul 15 2020 11:02:32 GMT+0200 (CEST),1594803752717,12.60655,45,compatible
1403,2994,27,,correct,Graduated College,1594804509110,small,157,male,q,,images/square_2x2.jpg,Wed Jul 15 2020 11:02:32 GMT+0200 (CEST),1594803752717,12.60655,46,compatible
1403,3865,27,,correct,Graduated College,1594804509110,large,157,male,p,,images/square_4x4.jpg,Wed Jul 15 2020 11:02:32 GMT+0200 (CEST),1594803752717,12.60655,47,compatible
1403,3169,27,,correct,Graduated College,1594804509110,small,157,male,q,,images/square_2x2.jpg,Wed Jul 15 2020 11:02:32 GMT+0200 (CEST),1594803752717,12.60655,48,compatible
1403,3125,27,,correct,Graduated College,1594804509110,small,157,male,q,,images/square_2x2.jpg,Wed Jul 15 2020 11:02:32 GMT+0200 (CEST),1594803752717,12.60655,49,compatible
1403,3012,27,,correct,Graduated College,1594804509110,small,157,male,q,,images/square_2x2.jpg,Wed Jul 15 2020 11:02:32 GMT+0200 (CEST),1594803752717,12.60655,50,compatible
1403,3152,27,,correct,Graduated College,1594804509110,large,157,male,p,,images/square_4x4.jpg,Wed Jul 15 2020 11:02:32 GMT+0200 (CEST),1594803752717,12.60655,51,compatible
1403,3339,27,,correct,Graduated College,1594804509110,small,157,male,q,,images/square_2x2.jpg,Wed Jul 15 2020 11:02:32 GMT+0200 (CEST),1594803752717,12.60655,52,compatible
1403,3138,27,,correct,Graduated College,1594804509110,small,157,male,q,,images/square_2x2.jpg,Wed Jul 15 2020 11:02:32 GMT+0200 (CEST),1594803752717,12.60655,53,compatible
1403,3027,27,,correct,Graduated College,1594804509110,small,157,male,q,,images/square_2x2.jpg,Wed Jul 15 2020 11:02:32 GMT+0200 (CEST),1594803752717,12.60655,54,compatible
1403,3241,27,,correct,Graduated College,1594804509110,large,157,male,p,,images/square_4x4.jpg,Wed Jul 15 2020 11:02:32 GMT+0200 (CEST),1594803752717,12.60655,55,compatible
1403,3049,27,,correct,Graduated College,1594804509110,small,157,male,q,,images/square_2x2.jpg,Wed Jul 15 2020 11:02:32 GMT+0200 (CEST),1594803752717,12.60655,56,compatible
1403,3140,27,,correct,Graduated College,1594804509110,large,157,male,p,,images/square_4x4.jpg,Wed Jul 15 2020 11:02:32 GMT+0200 (CEST),1594803752717,12.60655,57,compatible
1403,3107,27,,correct,Graduated College,1594804509110,large,157,male,p,,images/square_4x4.jpg,Wed Jul 15 2020 11:02:32 GMT+0200 (CEST),1594803752717,12.60655,58,compatible
1403,3045,27,,correct,Graduated College,1594804509110,small,157,male,q,,images/square_2x2.jpg,Wed Jul 15 2020 11:02:32 GMT+0200 (CEST),1594803752717,12.60655,59,compatible
1403,3009,27,,correct,Graduated College,1594804509110,small,157,male,q,,images/square_2x2.jpg,Wed Jul 15 2020 11:02:32 GMT+0200 (CEST),1594803752717,12.60655,60,compatible
1401,3385,23,,incorrect,Graduated High School,1594669018532,large,157,male,q,german,images/square_4x4.jpg,Mon Jul 13 2020 21:26:35 GMT+0200 (Mitteleuropäische Sommerzeit),1594668395051,10.39135,1,compatible
1401,3098,23,,correct,Graduated High School,1594669018532,large,157,male,p,german,images/square_4x4.jpg,Mon Jul 13 2020 21:26:35 GMT+0200 (Mitteleuropäische Sommerzeit),1594668395051,10.39135,2,compatible
1401,2958,23,,incorrect,Graduated High School,1594669018532,small,157,male,p,german,images/square_2x2.jpg,Mon Jul 13 2020 21:26:35 GMT+0200 (Mitteleuropäische Sommerzeit),1594668395051,10.39135,3,compatible
1401,2873,23,,correct,Graduated High School,1594669018532,small,157,male,q,german,images/square_2x2.jpg,Mon Jul 13 2020 21:26:35 GMT+0200 (Mitteleuropäische Sommerzeit),1594668395051,10.39135,4,compatible
1401,2858,23,,correct,Graduated High School,1594669018532,small,157,male,q,german,images/square_2x2.jpg,Mon Jul 13 2020 21:26:35 GMT+0200 (Mitteleuropäische Sommerzeit),1594668395051,10.39135,5,compatible
1401,2932,23,,correct,Graduated High School,1594669018532,large,157,male,p,german,images/square_4x4.jpg,Mon Jul 13 2020 21:26:35 GMT+0200 (Mitteleuropäische Sommerzeit),1594668395051,10.39135,6,compatible
1401,3022,23,,correct,Graduated High School,1594669018532,large,157,male,p,german,images/square_4x4.jpg,Mon Jul 13 2020 21:26:35 GMT+0200 (Mitteleuropäische Sommerzeit),1594668395051,10.39135,7,compatible
1401,2826,23,,correct,Graduated High School,1594669018532,small,157,male,q,german,images/square_2x2.jpg,Mon Jul 13 2020 21:26:35 GMT+0200 (Mitteleuropäische Sommerzeit),1594668395051,10.39135,8,compatible
1401,2854,23,,correct,Graduated High School,1594669018532,large,157,male,p,german,images/square_4x4.jpg,Mon Jul 13 2020 21:26:35 GMT+0200 (Mitteleuropäische Sommerzeit),1594668395051,10.39135,9,compatible
1401,2930,23,,correct,Graduated High School,1594669018532,large,157,male,p,german,images/square_4x4.jpg,Mon Jul 13 2020 21:26:35 GMT+0200 (Mitteleuropäische Sommerzeit),1594668395051,10.39135,10,compatible
1401,2911,23,,correct,Graduated High School,1594669018532,small,157,male,q,german,images/square_2x2.jpg,Mon Jul 13 2020 21:26:35 GMT+0200 (Mitteleuropäische Sommerzeit),1594668395051,10.39135,1,compatible
1401,2791,23,,correct,Graduated High School,1594669018532,large,157,male,p,german,images/square_4x4.jpg,Mon Jul 13 2020 21:26:35 GMT+0200 (Mitteleuropäische Sommerzeit),1594668395051,10.39135,2,compatible
1401,2960,23,,correct,Graduated High School,1594669018532,small,157,male,q,german,images/square_2x2.jpg,Mon Jul 13 2020 21:26:35 GMT+0200 (Mitteleuropäische Sommerzeit),1594668395051,10.39135,3,compatible
1401,2897,23,,correct,Graduated High School,1594669018532,small,157,male,q,german,images/square_2x2.jpg,Mon Jul 13 2020 21:26:35 GMT+0200 (Mitteleuropäische Sommerzeit),1594668395051,10.39135,4,compatible
1401,2813,23,,correct,Graduated High School,1594669018532,small,157,male,q,german,images/square_2x2.jpg,Mon Jul 13 2020 21:26:35 GMT+0200 (Mitteleuropäische Sommerzeit),1594668395051,10.39135,5,compatible
1401,2829,23,,correct,Graduated High School,1594669018532,large,157,male,p,german,images/square_4x4.jpg,Mon Jul 13 2020 21:26:35 GMT+0200 (Mitteleuropäische Sommerzeit),1594668395051,10.39135,6,compatible
1401,2884,23,,correct,Graduated High School,1594669018532,small,157,male,q,german,images/square_2x2.jpg,Mon Jul 13 2020 21:26:35 GMT+0200 (Mitteleuropäische Sommerzeit),1594668395051,10.39135,7,compatible
1401,2881,23,,correct,Graduated High School,1594669018532,small,157,male,q,german,images/square_2x2.jpg,Mon Jul 13 2020 21:26:35 GMT+0200 (Mitteleuropäische Sommerzeit),1594668395051,10.39135,8,compatible
1401,2819,23,,correct,Graduated High School,1594669018532,small,157,male,q,german,images/square_2x2.jpg,Mon Jul 13 2020 21:26:35 GMT+0200 (Mitteleuropäische Sommerzeit),1594668395051,10.39135,9,compatible
1401,2884,23,,correct,Graduated High School,1594669018532,large,157,male,p,german,images/square_4x4.jpg,Mon Jul 13 2020 21:26:35 GMT+0200 (Mitteleuropäische Sommerzeit),1594668395051,10.39135,10,compatible
1401,2828,23,,correct,Graduated High School,1594669018532,small,157,male,q,german,images/square_2x2.jpg,Mon Jul 13 2020 21:26:35 GMT+0200 (Mitteleuropäische Sommerzeit),1594668395051,10.39135,11,compatible
1401,2807,23,,incorrect,Graduated High School,1594669018532,large,157,male,q,german,images/square_4x4.jpg,Mon Jul 13 2020 21:26:35 GMT+0200 (Mitteleuropäische Sommerzeit),1594668395051,10.39135,12,compatible
1401,2862,23,,correct,Graduated High School,1594669018532,large,157,male,p,german,images/square_4x4.jpg,Mon Jul 13 2020 21:26:35 GMT+0200 (Mitteleuropäische Sommerzeit),1594668395051,10.39135,13,compatible
1401,2879,23,,correct,Graduated High School,1594669018532,large,157,male,p,german,images/square_4x4.jpg,Mon Jul 13 2020 21:26:35 GMT+0200 (Mitteleuropäische Sommerzeit),1594668395051,10.39135,14,compatible
1401,2869,23,,correct,Graduated High School,1594669018532,small,157,male,q,german,images/square_2x2.jpg,Mon Jul 13 2020 21:26:35 GMT+0200 (Mitteleuropäische Sommerzeit),1594668395051,10.39135,15,compatible
1401,2850,23,,correct,Graduated High School,1594669018532,large,157,male,p,german,images/square_4x4.jpg,Mon Jul 13 2020 21:26:35 GMT+0200 (Mitteleuropäische Sommerzeit),1594668395051,10.39135,16,compatible
1401,2826,23,,correct,Graduated High School,1594669018532,large,157,male,p,german,images/square_4x4.jpg,Mon Jul 13 2020 21:26:35 GMT+0200 (Mitteleuropäische Sommerzeit),1594668395051,10.39135,17,compatible
1401,2820,23,,correct,Graduated High School,1594669018532,large,157,male,p,german,images/square_4x4.jpg,Mon Jul 13 2020 21:26:35 GMT+0200 (Mitteleuropäische Sommerzeit),1594668395051,10.39135,18,compatible
1401,2920,23,,correct,Graduated High School,1594669018532,small,157,male,q,german,images/square_2x2.jpg,Mon Jul 13 2020 21:26:35 GMT+0200 (Mitteleuropäische Sommerzeit),1594668395051,10.39135,19,compatible
1401,2863,23,,correct,Graduated High School,1594669018532,large,157,male,p,german,images/square_4x4.jpg,Mon Jul 13 2020 21:26:35 GMT+0200 (Mitteleuropäische Sommerzeit),1594668395051,10.39135,20,compatible
1401,2863,23,,correct,Graduated High School,1594669018532,large,157,male,p,german,images/square_4x4.jpg,Mon Jul 13 2020 21:26:35 GMT+0200 (Mitteleuropäische Sommerzeit),1594668395051,10.39135,21,compatible
1401,2824,23,,correct,Graduated High School,1594669018532,large,157,male,p,german,images/square_4x4.jpg,Mon Jul 13 2020 21:26:35 GMT+0200 (Mitteleuropäische Sommerzeit),1594668395051,10.39135,22,compatible
1401,2875,23,,correct,Graduated High School,1594669018532,small,157,male,q,german,images/square_2x2.jpg,Mon Jul 13 2020 21:26:35 GMT+0200 (Mitteleuropäische Sommerzeit),1594668395051,10.39135,23,compatible
1401,2847,23,,correct,Graduated High School,1594669018532,large,157,male,p,german,images/square_4x4.jpg,Mon Jul 13 2020 21:26:35 GMT+0200 (Mitteleuropäische Sommerzeit),1594668395051,10.39135,24,compatible
1401,2850,23,,correct,Graduated High School,1594669018532,small,157,male,q,german,images/square_2x2.jpg,Mon Jul 13 2020 21:26:35 GMT+0200 (Mitteleuropäische Sommerzeit),1594668395051,10.39135,25,compatible
1401,2974,23,,correct,Graduated High School,1594669018532,small,157,male,q,german,images/square_2x2.jpg,Mon Jul 13 2020 21:26:35 GMT+0200 (Mitteleuropäische Sommerzeit),1594668395051,10.39135,26,compatible
1401,2884,23,,correct,Graduated High School,1594669018532,small,157,male,q,german,images/square_2x2.jpg,Mon Jul 13 2020 21:26:35 GMT+0200 (Mitteleuropäische Sommerzeit),1594668395051,10.39135,27,compatible
1401,2783,23,,correct,Graduated High School,1594669018532,large,157,male,p,german,images/square_4x4.jpg,Mon Jul 13 2020 21:26:35 GMT+0200 (Mitteleuropäische Sommerzeit),1594668395051,10.39135,28,compatible
1401,2905,23,,correct,Graduated High School,1594669018532,large,157,male,p,german,images/square_4x4.jpg,Mon Jul 13 2020 21:26:35 GMT+0200 (Mitteleuropäische Sommerzeit),1594668395051,10.39135,29,compatible
1401,2900,23,,correct,Graduated High School,1594669018532,small,157,male,q,german,images/square_2x2.jpg,Mon Jul 13 2020 21:26:35 GMT+0200 (Mitteleuropäische Sommerzeit),1594668395051,10.39135,30,compatible
1401,2849,23,,correct,Graduated High School,1594669018532,large,157,male,p,german,images/square_4x4.jpg,Mon Jul 13 2020 21:26:35 GMT+0200 (Mitteleuropäische Sommerzeit),1594668395051,10.39135,31,compatible
1401,2823,23,,incorrect,Graduated High School,1594669018532,large,157,male,q,german,images/square_4x4.jpg,Mon Jul 13 2020 21:26:35 GMT+0200 (Mitteleuropäische Sommerzeit),1594668395051,10.39135,32,compatible
1401,2892,23,,correct,Graduated High School,1594669018532,small,157,male,q,german,images/square_2x2.jpg,Mon Jul 13 2020 21:26:35 GMT+0200 (Mitteleuropäische Sommerzeit),1594668395051,10.39135,33,compatible
1401,2907,23,,correct,Graduated High School,1594669018532,small,157,male,q,german,images/square_2x2.jpg,Mon Jul 13 2020 21:26:35 GMT+0200 (Mitteleuropäische Sommerzeit),1594668395051,10.39135,34,compatible
1401,2930,23,,correct,Graduated High School,1594669018532,small,157,male,q,german,images/square_2x2.jpg,Mon Jul 13 2020 21:26:35 GMT+0200 (Mitteleuropäische Sommerzeit),1594668395051,10.39135,35,compatible
1401,2934,23,,correct,Graduated High School,1594669018532,small,157,male,q,german,images/square_2x2.jpg,Mon Jul 13 2020 21:26:35 GMT+0200 (Mitteleuropäische Sommerzeit),1594668395051,10.39135,36,compatible
1401,2921,23,,correct,Graduated High School,1594669018532,small,157,male,q,german,images/square_2x2.jpg,Mon Jul 13 2020 21:26:35 GMT+0200 (Mitteleuropäische Sommerzeit),1594668395051,10.39135,37,compatible
1401,2879,23,,correct,Graduated High School,1594669018532,large,157,male,p,german,images/square_4x4.jpg,Mon Jul 13 2020 21:26:35 GMT+0200 (Mitteleuropäische Sommerzeit),1594668395051,10.39135,38,compatible
1401,2909,23,,correct,Graduated High School,1594669018532,small,157,male,q,german,images/square_2x2.jpg,Mon Jul 13 2020 21:26:35 GMT+0200 (Mitteleuropäische Sommerzeit),1594668395051,10.39135,39,compatible
1401,2837,23,,correct,Graduated High School,1594669018532,large,157,male,p,german,images/square_4x4.jpg,Mon Jul 13 2020 21:26:35 GMT+0200 (Mitteleuropäische Sommerzeit),1594668395051,10.39135,40,compatible
1401,2845,23,,correct,Graduated High School,1594669018532,small,157,male,q,german,images/square_2x2.jpg,Mon Jul 13 2020 21:26:35 GMT+0200 (Mitteleuropäische Sommerzeit),1594668395051,10.39135,41,compatible
1401,2979,23,,correct,Graduated High School,1594669018532,small,157,male,q,german,images/square_2x2.jpg,Mon Jul 13 2020 21:26:35 GMT+0200 (Mitteleuropäische Sommerzeit),1594668395051,10.39135,42,compatible
1401,3166,23,,correct,Graduated High School,1594669018532,large,157,male,p,german,images/square_4x4.jpg,Mon Jul 13 2020 21:26:35 GMT+0200 (Mitteleuropäische Sommerzeit),1594668395051,10.39135,43,compatible
1401,2953,23,,correct,Graduated High School,1594669018532,large,157,male,p,german,images/square_4x4.jpg,Mon Jul 13 2020 21:26:35 GMT+0200 (Mitteleuropäische Sommerzeit),1594668395051,10.39135,44,compatible
1401,2938,23,,correct,Graduated High School,1594669018532,small,157,male,q,german,images/square_2x2.jpg,Mon Jul 13 2020 21:26:35 GMT+0200 (Mitteleuropäische Sommerzeit),1594668395051,10.39135,45,compatible
1401,2881,23,,correct,Graduated High School,1594669018532,small,157,male,q,german,images/square_2x2.jpg,Mon Jul 13 2020 21:26:35 GMT+0200 (Mitteleuropäische Sommerzeit),1594668395051,10.39135,46,compatible
1401,2803,23,,incorrect,Graduated High School,1594669018532,large,157,male,q,german,images/square_4x4.jpg,Mon Jul 13 2020 21:26:35 GMT+0200 (Mitteleuropäische Sommerzeit),1594668395051,10.39135,47,compatible
1401,2853,23,,correct,Graduated High School,1594669018532,small,157,male,q,german,images/square_2x2.jpg,Mon Jul 13 2020 21:26:35 GMT+0200 (Mitteleuropäische Sommerzeit),1594668395051,10.39135,48,compatible
1401,2907,23,,correct,Graduated High School,1594669018532,large,157,male,p,german,images/square_4x4.jpg,Mon Jul 13 2020 21:26:35 GMT+0200 (Mitteleuropäische Sommerzeit),1594668395051,10.39135,49,compatible
1401,2766,23,,correct,Graduated High School,1594669018532,large,157,male,p,german,images/square_4x4.jpg,Mon Jul 13 2020 21:26:35 GMT+0200 (Mitteleuropäische Sommerzeit),1594668395051,10.39135,50,compatible
1401,2840,23,,correct,Graduated High School,1594669018532,small,157,male,q,german,images/square_2x2.jpg,Mon Jul 13 2020 21:26:35 GMT+0200 (Mitteleuropäische Sommerzeit),1594668395051,10.39135,51,compatible
1401,2808,23,,correct,Graduated High School,1594669018532,large,157,male,p,german,images/square_4x4.jpg,Mon Jul 13 2020 21:26:35 GMT+0200 (Mitteleuropäische Sommerzeit),1594668395051,10.39135,52,compatible
1401,2743,23,,correct,Graduated High School,1594669018532,large,157,male,p,german,images/square_4x4.jpg,Mon Jul 13 2020 21:26:35 GMT+0200 (Mitteleuropäische Sommerzeit),1594668395051,10.39135,53,compatible
1401,2864,23,,correct,Graduated High School,1594669018532,large,157,male,p,german,images/square_4x4.jpg,Mon Jul 13 2020 21:26:35 GMT+0200 (Mitteleuropäische Sommerzeit),1594668395051,10.39135,54,compatible
1401,2867,23,,correct,Graduated High School,1594669018532,small,157,male,q,german,images/square_2x2.jpg,Mon Jul 13 2020 21:26:35 GMT+0200 (Mitteleuropäische Sommerzeit),1594668395051,10.39135,55,compatible
1401,2876,23,,correct,Graduated High School,1594669018532,small,157,male,q,german,images/square_2x2.jpg,Mon Jul 13 2020 21:26:35 GMT+0200 (Mitteleuropäische Sommerzeit),1594668395051,10.39135,56,compatible
1401,2794,23,,correct,Graduated High School,1594669018532,large,157,male,p,german,images/square_4x4.jpg,Mon Jul 13 2020 21:26:35 GMT+0200 (Mitteleuropäische Sommerzeit),1594668395051,10.39135,57,compatible
1401,2799,23,,correct,Graduated High School,1594669018532,large,157,male,p,german,images/square_4x4.jpg,Mon Jul 13 2020 21:26:35 GMT+0200 (Mitteleuropäische Sommerzeit),1594668395051,10.39135,58,compatible
1401,2875,23,,correct,Graduated High School,1594669018532,small,157,male,q,german,images/square_2x2.jpg,Mon Jul 13 2020 21:26:35 GMT+0200 (Mitteleuropäische Sommerzeit),1594668395051,10.39135,59,compatible
1401,2886,23,,correct,Graduated High School,1594669018532,large,157,male,p,german,images/square_4x4.jpg,Mon Jul 13 2020 21:26:35 GMT+0200 (Mitteleuropäische Sommerzeit),1594668395051,10.39135,60,compatible
1401,3118,23,,incorrect,Graduated High School,1594669018532,small,157,male,q,german,images/square_2x2.jpg,Mon Jul 13 2020 21:26:35 GMT+0200 (Mitteleuropäische Sommerzeit),1594668395051,10.39135,1,incompatible
1401,3050,23,,incorrect,Graduated High School,1594669018532,large,157,male,p,german,images/square_4x4.jpg,Mon Jul 13 2020 21:26:35 GMT+0200 (Mitteleuropäische Sommerzeit),1594668395051,10.39135,2,incompatible
1401,3085,23,,correct,Graduated High School,1594669018532,large,157,male,q,german,images/square_4x4.jpg,Mon Jul 13 2020 21:26:35 GMT+0200 (Mitteleuropäische Sommerzeit),1594668395051,10.39135,3,incompatible
1401,2847,23,,correct,Graduated High School,1594669018532,small,157,male,p,german,images/square_2x2.jpg,Mon Jul 13 2020 21:26:35 GMT+0200 (Mitteleuropäische Sommerzeit),1594668395051,10.39135,4,incompatible
1401,2909,23,,correct,Graduated High School,1594669018532,large,157,male,q,german,images/square_4x4.jpg,Mon Jul 13 2020 21:26:35 GMT+0200 (Mitteleuropäische Sommerzeit),1594668395051,10.39135,5,incompatible
1401,2973,23,,correct,Graduated High School,1594669018532,large,157,male,q,german,images/square_4x4.jpg,Mon Jul 13 2020 21:26:35 GMT+0200 (Mitteleuropäische Sommerzeit),1594668395051,10.39135,6,incompatible
1401,2954,23,,correct,Graduated High School,1594669018532,small,157,male,p,german,images/square_2x2.jpg,Mon Jul 13 2020 21:26:35 GMT+0200 (Mitteleuropäische Sommerzeit),1594668395051,10.39135,7,incompatible
1401,2961,23,,correct,Graduated High School,1594669018532,large,157,male,q,german,images/square_4x4.jpg,Mon Jul 13 2020 21:26:35 GMT+0200 (Mitteleuropäische Sommerzeit),1594668395051,10.39135,8,incompatible
1401,2852,23,,correct,Graduated High School,1594669018532,large,157,male,q,german,images/square_4x4.jpg,Mon Jul 13 2020 21:26:35 GMT+0200 (Mitteleuropäische Sommerzeit),1594668395051,10.39135,9,incompatible
1401,2895,23,,correct,Graduated High School,1594669018532,large,157,male,q,german,images/square_4x4.jpg,Mon Jul 13 2020 21:26:35 GMT+0200 (Mitteleuropäische Sommerzeit),1594668395051,10.39135,10,incompatible
1401,2908,23,,correct,Graduated High School,1594669018532,small,157,male,p,german,images/square_2x2.jpg,Mon Jul 13 2020 21:26:35 GMT+0200 (Mitteleuropäische Sommerzeit),1594668395051,10.39135,11,incompatible
1401,2948,23,,correct,Graduated High School,1594669018532,small,157,male,p,german,images/square_2x2.jpg,Mon Jul 13 2020 21:26:35 GMT+0200 (Mitteleuropäische Sommerzeit),1594668395051,10.39135,12,incompatible
1401,3065,23,,correct,Graduated High School,1594669018532,large,157,male,q,german,images/square_4x4.jpg,Mon Jul 13 2020 21:26:35 GMT+0200 (Mitteleuropäische Sommerzeit),1594668395051,10.39135,13,incompatible
1401,2989,23,,correct,Graduated High School,1594669018532,large,157,male,q,german,images/square_4x4.jpg,Mon Jul 13 2020 21:26:35 GMT+0200 (Mitteleuropäische Sommerzeit),1594668395051,10.39135,14,incompatible
1401,2843,23,,correct,Graduated High School,1594669018532,large,157,male,q,german,images/square_4x4.jpg,Mon Jul 13 2020 21:26:35 GMT+0200 (Mitteleuropäische Sommerzeit),1594668395051,10.39135,15,incompatible
1401,2874,23,,correct,Graduated High School,1594669018532,small,157,male,p,german,images/square_2x2.jpg,Mon Jul 13 2020 21:26:35 GMT+0200 (Mitteleuropäische Sommerzeit),1594668395051,10.39135,16,incompatible
1401,3014,23,,correct,Graduated High School,1594669018532,large,157,male,q,german,images/square_4x4.jpg,Mon Jul 13 2020 21:26:35 GMT+0200 (Mitteleuropäische Sommerzeit),1594668395051,10.39135,17,incompatible
1401,2920,23,,correct,Graduated High School,1594669018532,small,157,male,p,german,images/square_2x2.jpg,Mon Jul 13 2020 21:26:35 GMT+0200 (Mitteleuropäische Sommerzeit),1594668395051,10.39135,18,incompatible
1401,2886,23,,correct,Graduated High School,1594669018532,small,157,male,p,german,images/square_2x2.jpg,Mon Jul 13 2020 21:26:35 GMT+0200 (Mitteleuropäische Sommerzeit),1594668395051,10.39135,19,incompatible
1401,2898,23,,correct,Graduated High School,1594669018532,small,157,male,p,german,images/square_2x2.jpg,Mon Jul 13 2020 21:26:35 GMT+0200 (Mitteleuropäische Sommerzeit),1594668395051,10.39135,20,incompatible
1401,3686,23,,correct,Graduated High School,1594669018532,large,157,male,q,german,images/square_4x4.jpg,Mon Jul 13 2020 21:26:35 GMT+0200 (Mitteleuropäische Sommerzeit),1594668395051,10.39135,1,incompatible
1401,3026,23,,correct,Graduated High School,1594669018532,large,157,male,q,german,images/square_4x4.jpg,Mon Jul 13 2020 21:26:35 GMT+0200 (Mitteleuropäische Sommerzeit),1594668395051,10.39135,2,incompatible
1401,3003,23,,correct,Graduated High School,1594669018532,large,157,male,q,german,images/square_4x4.jpg,Mon Jul 13 2020 21:26:35 GMT+0200 (Mitteleuropäische Sommerzeit),1594668395051,10.39135,3,incompatible
1401,2826,23,,correct,Graduated High School,1594669018532,large,157,male,q,german,images/square_4x4.jpg,Mon Jul 13 2020 21:26:35 GMT+0200 (Mitteleuropäische Sommerzeit),1594668395051,10.39135,4,incompatible
1401,2819,23,,correct,Graduated High School,1594669018532,large,157,male,q,german,images/square_4x4.jpg,Mon Jul 13 2020 21:26:35 GMT+0200 (Mitteleuropäische Sommerzeit),1594668395051,10.39135,5,incompatible
1401,2841,23,,correct,Graduated High School,1594669018532,large,157,male,q,german,images/square_4x4.jpg,Mon Jul 13 2020 21:26:35 GMT+0200 (Mitteleuropäische Sommerzeit),1594668395051,10.39135,6,incompatible
1401,2939,23,,correct,Graduated High School,1594669018532,small,157,male,p,german,images/square_2x2.jpg,Mon Jul 13 2020 21:26:35 GMT+0200 (Mitteleuropäische Sommerzeit),1594668395051,10.39135,7,incompatible
1401,2922,23,,correct,Graduated High School,1594669018532,large,157,male,q,german,images/square_4x4.jpg,Mon Jul 13 2020 21:26:35 GMT+0200 (Mitteleuropäische Sommerzeit),1594668395051,10.39135,8,incompatible
1401,2850,23,,correct,Graduated High School,1594669018532,small,157,male,p,german,images/square_2x2.jpg,Mon Jul 13 2020 21:26:35 GMT+0200 (Mitteleuropäische Sommerzeit),1594668395051,10.39135,9,incompatible
1401,2854,23,,correct,Graduated High School,1594669018532,small,157,male,p,german,images/square_2x2.jpg,Mon Jul 13 2020 21:26:35 GMT+0200 (Mitteleuropäische Sommerzeit),1594668395051,10.39135,10,incompatible
1401,2825,23,,correct,Graduated High School,1594669018532,small,157,male,p,german,images/square_2x2.jpg,Mon Jul 13 2020 21:26:35 GMT+0200 (Mitteleuropäische Sommerzeit),1594668395051,10.39135,11,incompatible
1401,2912,23,,correct,Graduated High School,1594669018532,large,157,male,q,german,images/square_4x4.jpg,Mon Jul 13 2020 21:26:35 GMT+0200 (Mitteleuropäische Sommerzeit),1594668395051,10.39135,12,incompatible
1401,2952,23,,incorrect,Graduated High School,1594669018532,large,157,male,p,german,images/square_4x4.jpg,Mon Jul 13 2020 21:26:35 GMT+0200 (Mitteleuropäische Sommerzeit),1594668395051,10.39135,13,incompatible
1401,3226,23,,correct,Graduated High School,1594669018532,large,157,male,q,german,images/square_4x4.jpg,Mon Jul 13 2020 21:26:35 GMT+0200 (Mitteleuropäische Sommerzeit),1594668395051,10.39135,14,incompatible
1401,2901,23,,correct,Graduated High School,1594669018532,large,157,male,q,german,images/square_4x4.jpg,Mon Jul 13 2020 21:26:35 GMT+0200 (Mitteleuropäische Sommerzeit),1594668395051,10.39135,15,incompatible
1401,2861,23,,correct,Graduated High School,1594669018532,large,157,male,q,german,images/square_4x4.jpg,Mon Jul 13 2020 21:26:35 GMT+0200 (Mitteleuropäische Sommerzeit),1594668395051,10.39135,16,incompatible
1401,2918,23,,correct,Graduated High School,1594669018532,small,157,male,p,german,images/square_2x2.jpg,Mon Jul 13 2020 21:26:35 GMT+0200 (Mitteleuropäische Sommerzeit),1594668395051,10.39135,17,incompatible
1401,2968,23,,correct,Graduated High School,1594669018532,small,157,male,p,german,images/square_2x2.jpg,Mon Jul 13 2020 21:26:35 GMT+0200 (Mitteleuropäische Sommerzeit),1594668395051,10.39135,18,incompatible
1401,2923,23,,correct,Graduated High School,1594669018532,small,157,male,p,german,images/square_2x2.jpg,Mon Jul 13 2020 21:26:35 GMT+0200 (Mitteleuropäische Sommerzeit),1594668395051,10.39135,19,incompatible
1401,2858,23,,correct,Graduated High School,1594669018532,small,157,male,p,german,images/square_2x2.jpg,Mon Jul 13 2020 21:26:35 GMT+0200 (Mitteleuropäische Sommerzeit),1594668395051,10.39135,20,incompatible
1401,2866,23,,correct,Graduated High School,1594669018532,small,157,male,p,german,images/square_2x2.jpg,Mon Jul 13 2020 21:26:35 GMT+0200 (Mitteleuropäische Sommerzeit),1594668395051,10.39135,21,incompatible
1401,2907,23,,correct,Graduated High School,1594669018532,large,157,male,q,german,images/square_4x4.jpg,Mon Jul 13 2020 21:26:35 GMT+0200 (Mitteleuropäische Sommerzeit),1594668395051,10.39135,22,incompatible
1401,2934,23,,correct,Graduated High School,1594669018532,large,157,male,q,german,images/square_4x4.jpg,Mon Jul 13 2020 21:26:35 GMT+0200 (Mitteleuropäische Sommerzeit),1594668395051,10.39135,23,incompatible
1401,2936,23,,correct,Graduated High School,1594669018532,small,157,male,p,german,images/square_2x2.jpg,Mon Jul 13 2020 21:26:35 GMT+0200 (Mitteleuropäische Sommerzeit),1594668395051,10.39135,24,incompatible
1401,2861,23,,correct,Graduated High School,1594669018532,small,157,male,p,german,images/square_2x2.jpg,Mon Jul 13 2020 21:26:35 GMT+0200 (Mitteleuropäische Sommerzeit),1594668395051,10.39135,25,incompatible
1401,2808,23,,correct,Graduated High School,1594669018532,small,157,male,p,german,images/square_2x2.jpg,Mon Jul 13 2020 21:26:35 GMT+0200 (Mitteleuropäische Sommerzeit),1594668395051,10.39135,26,incompatible
1401,3040,23,,correct,Graduated High School,1594669018532,large,157,male,q,german,images/square_4x4.jpg,Mon Jul 13 2020 21:26:35 GMT+0200 (Mitteleuropäische Sommerzeit),1594668395051,10.39135,27,incompatible
1401,2940,23,,correct,Graduated High School,1594669018532,large,157,male,q,german,images/square_4x4.jpg,Mon Jul 13 2020 21:26:35 GMT+0200 (Mitteleuropäische Sommerzeit),1594668395051,10.39135,28,incompatible
1401,2914,23,,correct,Graduated High School,1594669018532,small,157,male,p,german,images/square_2x2.jpg,Mon Jul 13 2020 21:26:35 GMT+0200 (Mitteleuropäische Sommerzeit),1594668395051,10.39135,29,incompatible
1401,2902,23,,correct,Graduated High School,1594669018532,small,157,male,p,german,images/square_2x2.jpg,Mon Jul 13 2020 21:26:35 GMT+0200 (Mitteleuropäische Sommerzeit),1594668395051,10.39135,30,incompatible
1401,2905,23,,correct,Graduated High School,1594669018532,small,157,male,p,german,images/square_2x2.jpg,Mon Jul 13 2020 21:26:35 GMT+0200 (Mitteleuropäische Sommerzeit),1594668395051,10.39135,31,incompatible
1401,2864,23,,correct,Graduated High School,1594669018532,small,157,male,p,german,images/square_2x2.jpg,Mon Jul 13 2020 21:26:35 GMT+0200 (Mitteleuropäische Sommerzeit),1594668395051,10.39135,32,incompatible
1401,2883,23,,correct,Graduated High School,1594669018532,small,157,male,p,german,images/square_2x2.jpg,Mon Jul 13 2020 21:26:35 GMT+0200 (Mitteleuropäische Sommerzeit),1594668395051,10.39135,33,incompatible
1401,2881,23,,correct,Graduated High School,1594669018532,small,157,male,p,german,images/square_2x2.jpg,Mon Jul 13 2020 21:26:35 GMT+0200 (Mitteleuropäische Sommerzeit),1594668395051,10.39135,34,incompatible
1401,2890,23,,correct,Graduated High School,1594669018532,small,157,male,p,german,images/square_2x2.jpg,Mon Jul 13 2020 21:26:35 GMT+0200 (Mitteleuropäische Sommerzeit),1594668395051,10.39135,35,incompatible
1401,2840,23,,correct,Graduated High School,1594669018532,small,157,male,p,german,images/square_2x2.jpg,Mon Jul 13 2020 21:26:35 GMT+0200 (Mitteleuropäische Sommerzeit),1594668395051,10.39135,36,incompatible
1401,2916,23,,correct,Graduated High School,1594669018532,large,157,male,q,german,images/square_4x4.jpg,Mon Jul 13 2020 21:26:35 GMT+0200 (Mitteleuropäische Sommerzeit),1594668395051,10.39135,37,incompatible
1401,2897,23,,correct,Graduated High School,1594669018532,large,157,male,q,german,images/square_4x4.jpg,Mon Jul 13 2020 21:26:35 GMT+0200 (Mitteleuropäische Sommerzeit),1594668395051,10.39135,38,incompatible
1401,2865,23,,correct,Graduated High School,1594669018532,small,157,male,p,german,images/square_2x2.jpg,Mon Jul 13 2020 21:26:35 GMT+0200 (Mitteleuropäische Sommerzeit),1594668395051,10.39135,39,incompatible
1401,2964,23,,correct,Graduated High School,1594669018532,large,157,male,q,german,images/square_4x4.jpg,Mon Jul 13 2020 21:26:35 GMT+0200 (Mitteleuropäische Sommerzeit),1594668395051,10.39135,40,incompatible
1401,2938,23,,incorrect,Graduated High School,1594669018532,large,157,male,p,german,images/square_4x4.jpg,Mon Jul 13 2020 21:26:35 GMT+0200 (Mitteleuropäische Sommerzeit),1594668395051,10.39135,41,incompatible
1401,2934,23,,correct,Graduated High School,1594669018532,large,157,male,q,german,images/square_4x4.jpg,Mon Jul 13 2020 21:26:35 GMT+0200 (Mitteleuropäische Sommerzeit),1594668395051,10.39135,42,incompatible
1401,2934,23,,correct,Graduated High School,1594669018532,large,157,male,q,german,images/square_4x4.jpg,Mon Jul 13 2020 21:26:35 GMT+0200 (Mitteleuropäische Sommerzeit),1594668395051,10.39135,43,incompatible
1401,2957,23,,correct,Graduated High School,1594669018532,small,157,male,p,german,images/square_2x2.jpg,Mon Jul 13 2020 21:26:35 GMT+0200 (Mitteleuropäische Sommerzeit),1594668395051,10.39135,44,incompatible
1401,3337,23,,correct,Graduated High School,1594669018532,large,157,male,q,german,images/square_4x4.jpg,Mon Jul 13 2020 21:26:35 GMT+0200 (Mitteleuropäische Sommerzeit),1594668395051,10.39135,45,incompatible
1401,2915,23,,correct,Graduated High School,1594669018532,large,157,male,q,german,images/square_4x4.jpg,Mon Jul 13 2020 21:26:35 GMT+0200 (Mitteleuropäische Sommerzeit),1594668395051,10.39135,46,incompatible
1401,2902,23,,correct,Graduated High School,1594669018532,large,157,male,q,german,images/square_4x4.jpg,Mon Jul 13 2020 21:26:35 GMT+0200 (Mitteleuropäische Sommerzeit),1594668395051,10.39135,47,incompatible
1401,2911,23,,correct,Graduated High School,1594669018532,small,157,male,p,german,images/square_2x2.jpg,Mon Jul 13 2020 21:26:35 GMT+0200 (Mitteleuropäische Sommerzeit),1594668395051,10.39135,48,incompatible
1401,2898,23,,correct,Graduated High School,1594669018532,small,157,male,p,german,images/square_2x2.jpg,Mon Jul 13 2020 21:26:35 GMT+0200 (Mitteleuropäische Sommerzeit),1594668395051,10.39135,49,incompatible
1401,2899,23,,correct,Graduated High School,1594669018532,small,157,male,p,german,images/square_2x2.jpg,Mon Jul 13 2020 21:26:35 GMT+0200 (Mitteleuropäische Sommerzeit),1594668395051,10.39135,50,incompatible
1401,2884,23,,correct,Graduated High School,1594669018532,small,157,male,p,german,images/square_2x2.jpg,Mon Jul 13 2020 21:26:35 GMT+0200 (Mitteleuropäische Sommerzeit),1594668395051,10.39135,51,incompatible
1401,2926,23,,correct,Graduated High School,1594669018532,large,157,male,q,german,images/square_4x4.jpg,Mon Jul 13 2020 21:26:35 GMT+0200 (Mitteleuropäische Sommerzeit),1594668395051,10.39135,52,incompatible
1401,2908,23,,correct,Graduated High School,1594669018532,large,157,male,q,german,images/square_4x4.jpg,Mon Jul 13 2020 21:26:35 GMT+0200 (Mitteleuropäische Sommerzeit),1594668395051,10.39135,53,incompatible
1401,2922,23,,correct,Graduated High School,1594669018532,large,157,male,q,german,images/square_4x4.jpg,Mon Jul 13 2020 21:26:35 GMT+0200 (Mitteleuropäische Sommerzeit),1594668395051,10.39135,54,incompatible
1401,2933,23,,correct,Graduated High School,1594669018532,small,157,male,p,german,images/square_2x2.jpg,Mon Jul 13 2020 21:26:35 GMT+0200 (Mitteleuropäische Sommerzeit),1594668395051,10.39135,55,incompatible
1401,2866,23,,correct,Graduated High School,1594669018532,large,157,male,q,german,images/square_4x4.jpg,Mon Jul 13 2020 21:26:35 GMT+0200 (Mitteleuropäische Sommerzeit),1594668395051,10.39135,56,incompatible
1401,2967,23,,correct,Graduated High School,1594669018532,small,157,male,p,german,images/square_2x2.jpg,Mon Jul 13 2020 21:26:35 GMT+0200 (Mitteleuropäische Sommerzeit),1594668395051,10.39135,57,incompatible
1401,2916,23,,correct,Graduated High School,1594669018532,large,157,male,q,german,images/square_4x4.jpg,Mon Jul 13 2020 21:26:35 GMT+0200 (Mitteleuropäische Sommerzeit),1594668395051,10.39135,58,incompatible
1401,2960,23,,correct,Graduated High School,1594669018532,small,157,male,p,german,images/square_2x2.jpg,Mon Jul 13 2020 21:26:35 GMT+0200 (Mitteleuropäische Sommerzeit),1594668395051,10.39135,59,incompatible
1401,2931,23,,correct,Graduated High School,1594669018532,small,157,male,p,german,images/square_2x2.jpg,Mon Jul 13 2020 21:26:35 GMT+0200 (Mitteleuropäische Sommerzeit),1594668395051,10.39135,60,incompatible
1399,3424,24,,correct,Graduated High School,1594648727931,large,157,male,p,German,images/square_4x4.jpg,Mon Jul 13 2020 15:44:53 GMT+0200 (Mitteleuropäische Sommerzeit),1594647893950,13.899683333333334,1,compatible
1399,3414,24,,correct,Graduated High School,1594648727931,small,157,male,q,German,images/square_2x2.jpg,Mon Jul 13 2020 15:44:53 GMT+0200 (Mitteleuropäische Sommerzeit),1594647893950,13.899683333333334,2,compatible
1399,2895,24,,correct,Graduated High School,1594648727931,large,157,male,p,German,images/square_4x4.jpg,Mon Jul 13 2020 15:44:53 GMT+0200 (Mitteleuropäische Sommerzeit),1594647893950,13.899683333333334,3,compatible
1399,3014,24,,correct,Graduated High School,1594648727931,small,157,male,q,German,images/square_2x2.jpg,Mon Jul 13 2020 15:44:53 GMT+0200 (Mitteleuropäische Sommerzeit),1594647893950,13.899683333333334,4,compatible
1399,2910,24,,correct,Graduated High School,1594648727931,small,157,male,q,German,images/square_2x2.jpg,Mon Jul 13 2020 15:44:53 GMT+0200 (Mitteleuropäische Sommerzeit),1594647893950,13.899683333333334,5,compatible
1399,2911,24,,correct,Graduated High School,1594648727931,large,157,male,p,German,images/square_4x4.jpg,Mon Jul 13 2020 15:44:53 GMT+0200 (Mitteleuropäische Sommerzeit),1594647893950,13.899683333333334,6,compatible
1399,2959,24,,correct,Graduated High School,1594648727931,large,157,male,p,German,images/square_4x4.jpg,Mon Jul 13 2020 15:44:53 GMT+0200 (Mitteleuropäische Sommerzeit),1594647893950,13.899683333333334,7,compatible
1399,2894,24,,correct,Graduated High School,1594648727931,small,157,male,q,German,images/square_2x2.jpg,Mon Jul 13 2020 15:44:53 GMT+0200 (Mitteleuropäische Sommerzeit),1594647893950,13.899683333333334,8,compatible
1399,2751,24,,correct,Graduated High School,1594648727931,large,157,male,p,German,images/square_4x4.jpg,Mon Jul 13 2020 15:44:53 GMT+0200 (Mitteleuropäische Sommerzeit),1594647893950,13.899683333333334,9,compatible
1399,2798,24,,incorrect,Graduated High School,1594648727931,large,157,male,q,German,images/square_4x4.jpg,Mon Jul 13 2020 15:44:53 GMT+0200 (Mitteleuropäische Sommerzeit),1594647893950,13.899683333333334,10,compatible
1399,3098,24,,correct,Graduated High School,1594648727931,small,157,male,q,German,images/square_2x2.jpg,Mon Jul 13 2020 15:44:53 GMT+0200 (Mitteleuropäische Sommerzeit),1594647893950,13.899683333333334,1,compatible
1399,2935,24,,correct,Graduated High School,1594648727931,small,157,male,q,German,images/square_2x2.jpg,Mon Jul 13 2020 15:44:53 GMT+0200 (Mitteleuropäische Sommerzeit),1594647893950,13.899683333333334,2,compatible
1399,2806,24,,correct,Graduated High School,1594648727931,large,157,male,p,German,images/square_4x4.jpg,Mon Jul 13 2020 15:44:53 GMT+0200 (Mitteleuropäische Sommerzeit),1594647893950,13.899683333333334,3,compatible
1399,2894,24,,correct,Graduated High School,1594648727931,small,157,male,q,German,images/square_2x2.jpg,Mon Jul 13 2020 15:44:53 GMT+0200 (Mitteleuropäische Sommerzeit),1594647893950,13.899683333333334,4,compatible
1399,2864,24,,correct,Graduated High School,1594648727931,small,157,male,q,German,images/square_2x2.jpg,Mon Jul 13 2020 15:44:53 GMT+0200 (Mitteleuropäische Sommerzeit),1594647893950,13.899683333333334,5,compatible
1399,2903,24,,correct,Graduated High School,1594648727931,large,157,male,p,German,images/square_4x4.jpg,Mon Jul 13 2020 15:44:53 GMT+0200 (Mitteleuropäische Sommerzeit),1594647893950,13.899683333333334,6,compatible
1399,2999,24,,correct,Graduated High School,1594648727931,small,157,male,q,German,images/square_2x2.jpg,Mon Jul 13 2020 15:44:53 GMT+0200 (Mitteleuropäische Sommerzeit),1594647893950,13.899683333333334,7,compatible
1399,2839,24,,correct,Graduated High School,1594648727931,large,157,male,p,German,images/square_4x4.jpg,Mon Jul 13 2020 15:44:53 GMT+0200 (Mitteleuropäische Sommerzeit),1594647893950,13.899683333333334,8,compatible
1399,2902,24,,correct,Graduated High School,1594648727931,large,157,male,p,German,images/square_4x4.jpg,Mon Jul 13 2020 15:44:53 GMT+0200 (Mitteleuropäische Sommerzeit),1594647893950,13.899683333333334,9,compatible
1399,2895,24,,correct,Graduated High School,1594648727931,large,157,male,p,German,images/square_4x4.jpg,Mon Jul 13 2020 15:44:53 GMT+0200 (Mitteleuropäische Sommerzeit),1594647893950,13.899683333333334,10,compatible
1399,2911,24,,correct,Graduated High School,1594648727931,small,157,male,q,German,images/square_2x2.jpg,Mon Jul 13 2020 15:44:53 GMT+0200 (Mitteleuropäische Sommerzeit),1594647893950,13.899683333333334,11,compatible
1399,2887,24,,correct,Graduated High School,1594648727931,small,157,male,q,German,images/square_2x2.jpg,Mon Jul 13 2020 15:44:53 GMT+0200 (Mitteleuropäische Sommerzeit),1594647893950,13.899683333333334,12,compatible
1399,2879,24,,correct,Graduated High School,1594648727931,large,157,male,p,German,images/square_4x4.jpg,Mon Jul 13 2020 15:44:53 GMT+0200 (Mitteleuropäische Sommerzeit),1594647893950,13.899683333333334,13,compatible
1399,2895,24,,incorrect,Graduated High School,1594648727931,small,157,male,p,German,images/square_2x2.jpg,Mon Jul 13 2020 15:44:53 GMT+0200 (Mitteleuropäische Sommerzeit),1594647893950,13.899683333333334,14,compatible
1399,3015,24,,correct,Graduated High School,1594648727931,small,157,male,q,German,images/square_2x2.jpg,Mon Jul 13 2020 15:44:53 GMT+0200 (Mitteleuropäische Sommerzeit),1594647893950,13.899683333333334,15,compatible
1399,2951,24,,correct,Graduated High School,1594648727931,small,157,male,q,German,images/square_2x2.jpg,Mon Jul 13 2020 15:44:53 GMT+0200 (Mitteleuropäische Sommerzeit),1594647893950,13.899683333333334,16,compatible
1399,2926,24,,correct,Graduated High School,1594648727931,small,157,male,q,German,images/square_2x2.jpg,Mon Jul 13 2020 15:44:53 GMT+0200 (Mitteleuropäische Sommerzeit),1594647893950,13.899683333333334,17,compatible
1399,2918,24,,incorrect,Graduated High School,1594648727931,small,157,male,p,German,images/square_2x2.jpg,Mon Jul 13 2020 15:44:53 GMT+0200 (Mitteleuropäische Sommerzeit),1594647893950,13.899683333333334,18,compatible
1399,2928,24,,correct,Graduated High School,1594648727931,large,157,male,p,German,images/square_4x4.jpg,Mon Jul 13 2020 15:44:53 GMT+0200 (Mitteleuropäische Sommerzeit),1594647893950,13.899683333333334,19,compatible
1399,2998,24,,correct,Graduated High School,1594648727931,small,157,male,q,German,images/square_2x2.jpg,Mon Jul 13 2020 15:44:53 GMT+0200 (Mitteleuropäische Sommerzeit),1594647893950,13.899683333333334,20,compatible
1399,2950,24,,correct,Graduated High School,1594648727931,large,157,male,p,German,images/square_4x4.jpg,Mon Jul 13 2020 15:44:53 GMT+0200 (Mitteleuropäische Sommerzeit),1594647893950,13.899683333333334,21,compatible
1399,2895,24,,correct,Graduated High School,1594648727931,small,157,male,q,German,images/square_2x2.jpg,Mon Jul 13 2020 15:44:53 GMT+0200 (Mitteleuropäische Sommerzeit),1594647893950,13.899683333333334,22,compatible
1399,2909,24,,correct,Graduated High School,1594648727931,large,157,male,p,German,images/square_4x4.jpg,Mon Jul 13 2020 15:44:53 GMT+0200 (Mitteleuropäische Sommerzeit),1594647893950,13.899683333333334,23,compatible
1399,2983,24,,correct,Graduated High School,1594648727931,small,157,male,q,German,images/square_2x2.jpg,Mon Jul 13 2020 15:44:53 GMT+0200 (Mitteleuropäische Sommerzeit),1594647893950,13.899683333333334,24,compatible
1399,2967,24,,correct,Graduated High School,1594648727931,small,157,male,q,German,images/square_2x2.jpg,Mon Jul 13 2020 15:44:53 GMT+0200 (Mitteleuropäische Sommerzeit),1594647893950,13.899683333333334,25,compatible
1399,2926,24,,correct,Graduated High School,1594648727931,large,157,male,p,German,images/square_4x4.jpg,Mon Jul 13 2020 15:44:53 GMT+0200 (Mitteleuropäische Sommerzeit),1594647893950,13.899683333333334,26,compatible
1399,2951,24,,correct,Graduated High School,1594648727931,large,157,male,p,German,images/square_4x4.jpg,Mon Jul 13 2020 15:44:53 GMT+0200 (Mitteleuropäische Sommerzeit),1594647893950,13.899683333333334,27,compatible
1399,2927,24,,correct,Graduated High School,1594648727931,large,157,male,p,German,images/square_4x4.jpg,Mon Jul 13 2020 15:44:53 GMT+0200 (Mitteleuropäische Sommerzeit),1594647893950,13.899683333333334,28,compatible
1399,2959,24,,correct,Graduated High School,1594648727931,large,157,male,p,German,images/square_4x4.jpg,Mon Jul 13 2020 15:44:53 GMT+0200 (Mitteleuropäische Sommerzeit),1594647893950,13.899683333333334,29,compatible
1399,2943,24,,correct,Graduated High School,1594648727931,large,157,male,p,German,images/square_4x4.jpg,Mon Jul 13 2020 15:44:53 GMT+0200 (Mitteleuropäische Sommerzeit),1594647893950,13.899683333333334,30,compatible
1399,2991,24,,correct,Graduated High School,1594648727931,small,157,male,q,German,images/square_2x2.jpg,Mon Jul 13 2020 15:44:53 GMT+0200 (Mitteleuropäische Sommerzeit),1594647893950,13.899683333333334,31,compatible
1399,2950,24,,correct,Graduated High School,1594648727931,large,157,male,p,German,images/square_4x4.jpg,Mon Jul 13 2020 15:44:53 GMT+0200 (Mitteleuropäische Sommerzeit),1594647893950,13.899683333333334,32,compatible
1399,2959,24,,correct,Graduated High School,1594648727931,large,157,male,p,German,images/square_4x4.jpg,Mon Jul 13 2020 15:44:53 GMT+0200 (Mitteleuropäische Sommerzeit),1594647893950,13.899683333333334,33,compatible
1399,2879,24,,correct,Graduated High School,1594648727931,small,157,male,q,German,images/square_2x2.jpg,Mon Jul 13 2020 15:44:53 GMT+0200 (Mitteleuropäische Sommerzeit),1594647893950,13.899683333333334,34,compatible
1399,2919,24,,correct,Graduated High School,1594648727931,large,157,male,p,German,images/square_4x4.jpg,Mon Jul 13 2020 15:44:53 GMT+0200 (Mitteleuropäische Sommerzeit),1594647893950,13.899683333333334,35,compatible
1399,2982,24,,correct,Graduated High School,1594648727931,small,157,male,q,German,images/square_2x2.jpg,Mon Jul 13 2020 15:44:53 GMT+0200 (Mitteleuropäische Sommerzeit),1594647893950,13.899683333333334,36,compatible
1399,2871,24,,correct,Graduated High School,1594648727931,large,157,male,p,German,images/square_4x4.jpg,Mon Jul 13 2020 15:44:53 GMT+0200 (Mitteleuropäische Sommerzeit),1594647893950,13.899683333333334,37,compatible
1399,3007,24,,correct,Graduated High School,1594648727931,small,157,male,q,German,images/square_2x2.jpg,Mon Jul 13 2020 15:44:53 GMT+0200 (Mitteleuropäische Sommerzeit),1594647893950,13.899683333333334,38,compatible
1399,2943,24,,correct,Graduated High School,1594648727931,large,157,male,p,German,images/square_4x4.jpg,Mon Jul 13 2020 15:44:53 GMT+0200 (Mitteleuropäische Sommerzeit),1594647893950,13.899683333333334,39,compatible
1399,3024,24,,correct,Graduated High School,1594648727931,large,157,male,p,German,images/square_4x4.jpg,Mon Jul 13 2020 15:44:53 GMT+0200 (Mitteleuropäische Sommerzeit),1594647893950,13.899683333333334,40,compatible
1399,2966,24,,correct,Graduated High School,1594648727931,small,157,male,q,German,images/square_2x2.jpg,Mon Jul 13 2020 15:44:53 GMT+0200 (Mitteleuropäische Sommerzeit),1594647893950,13.899683333333334,41,compatible
1399,2951,24,,correct,Graduated High School,1594648727931,small,157,male,q,German,images/square_2x2.jpg,Mon Jul 13 2020 15:44:53 GMT+0200 (Mitteleuropäische Sommerzeit),1594647893950,13.899683333333334,42,compatible
1399,2942,24,,correct,Graduated High School,1594648727931,large,157,male,p,German,images/square_4x4.jpg,Mon Jul 13 2020 15:44:53 GMT+0200 (Mitteleuropäische Sommerzeit),1594647893950,13.899683333333334,43,compatible
1399,3087,24,,correct,Graduated High School,1594648727931,small,157,male,q,German,images/square_2x2.jpg,Mon Jul 13 2020 15:44:53 GMT+0200 (Mitteleuropäische Sommerzeit),1594647893950,13.899683333333334,44,compatible
1399,2967,24,,correct,Graduated High School,1594648727931,large,157,male,p,German,images/square_4x4.jpg,Mon Jul 13 2020 15:44:53 GMT+0200 (Mitteleuropäische Sommerzeit),1594647893950,13.899683333333334,45,compatible
1399,2973,24,,correct,Graduated High School,1594648727931,small,157,male,q,German,images/square_2x2.jpg,Mon Jul 13 2020 15:44:53 GMT+0200 (Mitteleuropäische Sommerzeit),1594647893950,13.899683333333334,46,compatible
1399,2912,24,,correct,Graduated High School,1594648727931,small,157,male,q,German,images/square_2x2.jpg,Mon Jul 13 2020 15:44:53 GMT+0200 (Mitteleuropäische Sommerzeit),1594647893950,13.899683333333334,47,compatible
1399,2975,24,,correct,Graduated High School,1594648727931,large,157,male,p,German,images/square_4x4.jpg,Mon Jul 13 2020 15:44:53 GMT+0200 (Mitteleuropäische Sommerzeit),1594647893950,13.899683333333334,48,compatible
